ax,ay,az,gx,gy,gz,label
0.0793457,0.02319336,0.9641113,-2.938931,-1.496183,-0.4122138,0
0.08081055,0.02050781,0.9562988,-2.824427,-1.580153,-0.2061069,0
0.07592773,0.01904297,0.9631348,-2.839695,-1.526718,-0.2824428,0
0.099674,-0.109373,-0.697169,-0.02119832,-0.4445259,-0.11353576,1
-0.019886,0.13194,0.06649,0.01292434,-0.072,-0.01716884,1
0.08276367,0.01464844,0.9597168,-2.832061,-1.503817,-0.1221374,0
0.109373,0.028121,-0.351909,-0.4384913,-0.3045099,0.46128238,1
0.07666016,0.01586914,0.9597168,-2.725191,-1.587786,-0.4427481,0
0.1813965,0.5529785,1.819336,-67.87786,82.73283,78.13741,10
0.07446289,0.02172852,0.9655762,-2.89313,-1.549618,-0.351145,0
-0.026047,-0.0378,-0.346236,-0.00018304,-0.0028,9.048e-05,1
0.7397461,0.4626465,1.161621,-172.1221,-75.29008,-4.267176,10
-0.5351563,0.6464844,1.195313,250.1298,-31.96947,-80.0229,10
0.08422852,-0.05883789,0.1132813,58.22901,250.1298,-45.53435,10
-0.017324,-0.0072,-0.777872,0.27964066,-0.0137,-0.0004927,1
-0.044713,0.0912,-0.026047,-0.05757492,-0.0125,0.31604534,1
0.028304,0.38759,0.001586,0.00050882,-0.0071,-0.00030628,1
0.08276367,0.01977539,0.9560547,-2.923664,-1.664122,-0.4580153,0
0.08618164,0.01806641,0.9609375,-2.778626,-1.625954,-0.2519084,0
-0.06771,0.00537,0.217221,0.1603901,-0.0146,-0.15519686,1
0.0793457,0.01757813,0.9616699,-2.931298,-1.625954,-0.259542,0
0.06738281,0.01489258,0.9755859,-2.854962,-1.603053,-0.1984733,10
0.08081055,0.01977539,0.9592285,-2.969466,-1.473282,-0.2748091,0
0.114253,0.03392,0.436699,0.00053196,0.01364,-0.00028964,1
0.08764648,0.01220703,0.9638672,-2.78626,-1.587786,-0.2900764,0
-0.034526,-0.007686,0.05551,-3.796e-05,-0.0098038,-8.97e-05,1
-0.329827,-0.331779,0.790194,0.0445757,0.01820702,-0.85735572,1
0.1264648,0.4616699,1.680908,68.61832,25.48092,-220.771,10
-0.621582,-0.02832031,0.4155273,-173.2061,116.3359,-144.8855,10
-0.1955566,0.425293,0.7407227,8.244275,44.70229,-248.1832,10
0.07397461,0.02172852,0.9611816,-2.877863,-1.671756,-0.3435115,0
0.09082031,0.02416992,0.9611816,-2.89313,-1.526718,-0.5038168,0
-0.2890625,0.1564941,0.3210449,164.1221,-118.1756,250.1298,10
0.057584,-0.047336,0.25986,0.16878238,0.10455302,0.53843556,1
0.08520508,0.01782227,0.9650879,-2.938931,-1.664122,-0.4580153,0
0.2629395,0.2075195,0.1098633,133.5573,31.86259,250.1298,10
-0.077226,-0.086071,0.153537,0.0438243,1.12452054,-0.16196258,1
0.03881836,0.5522461,1.063721,123.626,55.45038,-248.1832,10
0.07763672,0.01831055,0.9543457,-2.778626,-1.374046,-0.3969466,0
-0.003782,0.020191,-0.030012,0.03598608,-0.0794456,0.23881624,1
-0.2790527,0.5292969,1.034424,103.8168,11.44275,-230.9695,10
0.17263,0.074847,0.319701,0.00011882,0.02289248,-0.00012532,1
0.003172,-0.0417,0.032208,0.01416896,-0.0747,-0.00455728,1
0.08227539,0.02001953,0.9592285,-2.748092,-1.534351,-0.5648855,0
0.09033203,0.0144043,0.9602051,-3.244275,-1.671756,-0.2977099,0
-0.769043,0.673584,0.7124023,-202.6718,-66.45802,250.1298,10
-0.006039,-0.013725,0.195505,-0.15763566,1.03246572,0.77928734,1
0.07861328,0.4311523,0.7822266,250.1298,-137.9313,106.8244,10
0.1323242,0.06884766,0.9731445,-5.076336,39.00763,-0.2748091,10
-0.079117,-0.0045,0.309819,-0.0488852,0.05332,-0.21622406,1
0.08276367,0.02563477,0.9643555,-2.839695,-1.648855,-0.1603053,0
0.0793457,0.02319336,0.9641113,-2.938931,-1.496183,-0.4122138,0
-0.3491211,-0.0004882813,0.3129883,-248.1832,-77.29008,-0.05343511,10
0.08789063,0.01171875,0.9587402,-2.793893,-1.396947,-0.2977099,0
0.4196777,0.4624023,1.335205,-212.5954,85.87786,176.2061,10
0.583252,-0.05419922,-0.4343262,154.687,15.98473,-88.84733,10
0.018117,-0.0703,0.393145,0.00079508,0.0166,-0.00045682,1
0.049959,0.013481,0.307806,-0.04003636,-0.0681928,0.13136604,1
0.0793457,0.02294922,0.9594727,-2.900763,-1.580153,-0.3587786,0
0.021045,0.111264,-0.482632,-0.00010218,-0.0146877,0.00020046,1
0.08349609,0.01953125,0.9680176,-2.923664,-1.503817,-0.4427481,0
-0.091439,-0.326167,-0.854366,0.00048958,0.02433236,-0.00024544,1
-0.2058105,0.1169434,0.02416992,-220.7176,29.99237,54.8168,10
-0.006039,-0.013725,0.195505,-0.15763566,1.03246572,0.77928734,1
0.08398438,0.02075195,0.9570313,-2.923664,-1.717557,-0.3358779,0
-0.047092,-0.174704,0.119499,0.05200754,0.12143742,-0.14774578,1
0.08764648,0.01220703,0.9638672,-2.78626,-1.587786,-0.2900764,0
-0.6662598,0.5908203,1.377197,-63.24427,109.7634,-94.48855,10
0.119873,-0.3623047,0.1982422,45.29008,-12.34351,-136.0534,10
0.025193,-0.0009,-0.011163,-0.00028002,0.03108,0.00017498,1
0.07861328,0.01489258,0.9660645,-2.717557,-1.618321,-0.3282443,0
0.08642578,0.01660156,0.9616699,-2.946565,-1.59542,-0.1068702,0
0.075518,0.04953,0.048617,0.00049556,0.0174,-0.00029016,1
-0.068747,0.1676,-0.408883,-0.00086034,-0.0037,0.0005941,1
0.08154297,0.01928711,0.9575195,-2.748092,-1.519084,-0.4045802,0
1.510254,0.2832031,1.118164,-56.92366,-33.68702,73.32825,10
0.08276367,0.01757813,0.9631348,-2.679389,-1.503817,-0.3435115,0
-0.027755,0.00531,-0.12078,-0.00020488,0.01184,0.00013806,1
-0.9707031,0.291748,1.182129,250.1298,87.40458,-204.2137,10
-0.017507,-0.059,0.290604,-0.22392838,0.19037,0.98925398,1
0.0793457,0.02319336,0.9641113,-2.938931,-1.496183,-0.4122138,0
0.07104492,0.02368164,0.958252,-2.832061,-1.381679,-0.1832061,0
-0.560791,0.1796875,1.148438,33.33588,32.16031,-10.29008,10
0.0847168,0.01757813,0.9597168,-2.885496,-1.664122,-0.3206107,0
0.08398438,0.01928711,0.9699707,-2.969466,-1.740458,-0.2824428,0
0.05551,-0.0657,0.005124,-0.0447395,-0.1442,-0.10194184,1
0.07617188,0.02099609,0.9580078,-2.885496,-1.534351,-0.2824428,0
0.07739258,0.02246094,0.9614258,-2.763359,-1.564886,-0.3206107,0
0.08105469,0.0222168,0.9550781,-2.862595,-1.458015,-0.3740458,0
0.0793457,0.02319336,0.9641113,-2.938931,-1.496183,-0.4122138,0
0.0793457,0.02294922,0.9685059,-2.862595,-1.679389,-0.4656488,0
-0.052338,-0.1672,-0.687653,0.00053456,-0.003,-0.00035282,1
0.314209,0.2373047,1.48584,-189.8473,39.74809,-167.2595,10
-1.431792,-1.1397,0.729133,-0.2222623,0.01217,0.15113904,1
0.08886719,0.02197266,0.9655762,-2.984733,-1.610687,-0.2137404,0
0.1650391,0.5534668,0.8120117,116.8321,190.9084,250.1298,10
0.09033203,0.01708984,0.953125,-2.717557,-1.572519,-0.2977099,0
0.08251953,0.01977539,0.9658203,-2.847328,-1.480916,-0.2213741,0
0.08154297,0.01928711,0.967041,-2.839695,-1.51145,-0.4351145,0
-0.108946,0.03989,0.087169,0.05571696,0.05427,-0.0401726,1
-0.016409,0.11065,-0.630008,-0.1550289,0.00406,-0.00094952,1
0.07788086,0.02368164,0.9567871,-3.068702,-1.59542,-0.3053435,0
0.1816406,0.40625,0.4555664,62.9084,22.08397,-146.7634,10
-0.3603516,-0.2121582,1.825684,226.8168,-87.74046,18.48092,10
0.07983398,0.01513672,0.9667969,-2.862595,-1.51145,-0.2290076,0
0.08544922,0.0168457,0.9562988,-3.038168,-1.59542,-0.4732824,0
0.08032227,0.01367188,0.9658203,-2.89313,-1.748092,-0.3206107,0
0.03491211,-0.3969727,0.3347168,75.77863,33.0458,-19.76336,10
-0.061793,-0.063623,0.220271,-0.03606876,-0.1683776,-0.15927652,1
0.07788086,0.02368164,0.9567871,-3.068702,-1.59542,-0.3053435,0
0.006893,0.005246,0.134688,-0.00072176,0.01316302,-1.43625768,1
0.08105469,0.0222168,0.9550781,-2.862595,-1.458015,-0.3740458,0
1.079346,-0.2590332,-0.3112793,182.4275,-10.35114,-143.8397,10
0.074725,0.02001,-0.177449,-0.00100906,-0.081,0.13692198,1
-0.4438477,0.3728027,0.1540527,163.2366,-75.25954,118.8092,10
0.7971191,0.1203613,0.6708984,-240.6031,7.160306,-23.0458,10
0.3444824,0.5244141,1.328369,-144.1832,-59.68702,250.1298,10
0.056425,-0.0134,0.063501,-0.16679468,-0.0375,-0.15875496,1
-0.3996582,0.06689453,0.6159668,-248.1832,-248.1832,81.771,10
-0.329827,-0.331779,0.790194,0.0445757,0.01820702,-0.85735572,1
0.08374023,0.01513672,0.9599609,-2.80916,-1.648855,-0.2061069,0
-0.7321777,-0.5354004,1.999939,250.1298,-27.42748,21.70992,10
0.015311,-0.0033,0.004636,0.00037076,0.05324,-0.00020072,1
-0.027084,-0.0458,-0.684664,0.1572805,0.06455,0.01089062,1
0.07910156,0.01513672,0.9597168,-2.80916,-1.519084,-0.4198473,0
-1.431792,-1.1397,0.729133,-0.2222623,0.01217,0.15113904,1
0.566934,0.02654,0.372405,0.00027092,0.01518,-0.0001261,1
0.119873,-0.3623047,0.1982422,45.29008,-12.34351,-136.0534,10
0.263916,-0.2077637,0.3879395,42.82443,250.1298,22.54962,10
0.08007813,0.015625,0.9555664,-2.839695,-1.625954,-0.1908397,0
0.003111,0.01409,-0.719068,0.02492854,-0.0187,-0.68220958,1
0.001342,-0.0204,-0.195566,-0.07209644,0.07398,-0.22388574,1
-0.2805176,0.2619629,0.2912598,-79.75572,-34.92366,25.93893,10
0.8601074,0.3007813,0.6904297,-41.25191,-54.34351,-8.267176,10
0.9851074,-0.168457,0.001708984,249.7939,127.7099,250.1298,10
0.11956,0.07631,0.478728,-0.00429494,0.01029,0.13313898,1
0.17019,-0.157014,-0.549976,-0.00867542,-0.0706846,-0.03333382,1
-0.013176,-0.113399,-0.05063,0.0588588,-0.0315461,0.36212566,1
0.07885742,0.01757813,0.963623,-3.007634,-1.664122,-0.259542,0
-1.42627,0.1098633,0.9821777,250.1298,235.4122,188.9771,10
0.08398438,0.01928711,0.9699707,-2.969466,-1.740458,-0.2824428,0
0.016836,0.112179,-0.055205,0.18983978,0.0638443,-1.60039048,1
0.08154297,0.02368164,0.9584961,-2.801527,-1.557252,-0.4274809,0
1.248779,0.006835938,1.100586,-41.96183,-1.839695,233.9695,10
0.005124,0.068381,-0.67039,0.0394199,-0.0878623,-0.02576392,1
0.02867,-0.003233,0.099308,0.02255604,-0.1845493,-0.05810766,1
0.078125,0.01708984,0.9650879,-2.946565,-1.549618,-0.4274809,0
0.08105469,0.02392578,0.9643555,-3.0,-1.442748,-0.3129771,0
-0.3798828,0.2128906,1.999939,-190.6183,-197.2366,-30.19847,10
-0.044713,-0.0463,0.069235,0.00057226,0.01914,-0.00034268,1
-0.3146973,0.7045898,1.321289,158.0382,-38.78626,-176.229,10
1.061035,-0.229248,1.445313,250.1298,3.251908,11.12977,10
0.09765625,0.4699707,1.142578,-157.8321,-248.1832,34.77863,10
0.2883301,0.208252,1.904297,-56.62595,-5.877862,121.3359,10
-0.039467,-0.0874,-0.287371,-0.03597516,-0.0294,-0.36534056,1
0.08105469,0.02001953,0.9526367,-2.656489,-1.610687,-0.2671756,0
0.08105469,0.01293945,0.9614258,-2.877863,-1.641221,-0.2290076,0
0.07714844,0.01977539,0.9609375,-2.885496,-1.51145,-0.2290076,0
0.115168,0.002257,-0.737063,-0.08608262,0.2023918,0.11714976,1
0.07641602,0.01953125,0.9597168,-2.763359,-1.465649,-0.2213741,0
0.08032227,0.02612305,0.9702148,-2.908397,-1.717557,-0.3358779,0
0.1264648,0.4616699,1.680908,68.61832,25.48092,-220.771,10
0.07080078,0.01660156,0.9599609,-2.885496,-1.618321,-0.3358779,0
0.08227539,0.02685547,0.963623,-2.946565,-1.587786,-0.1679389,0
0.3032227,0.3476563,1.206299,-173.1908,-148.2137,166.4275,10
0.07861328,0.02856445,0.9667969,-2.832061,-1.496183,-0.2366412,0
0.021045,0.111264,-0.482632,-0.00010218,-0.0146877,0.00020046,1
-0.2868652,0.4162598,1.999939,-40.56488,15.54198,-39.9313,10
-0.02562,0.0229,-0.107177,0.00056368,-0.0025,-0.00017108,1
0.012749,0.06314,0.344955,-0.0173914,-0.0314,0.1650155,1
-0.2827148,0.5290527,1.410645,139.7176,41.0,65.32825,10
0.7438965,0.3840332,0.6743164,-25.61069,-78.94656,139.4275,10
-0.016775,0.03392,0.056791,0.00036166,0.03402,-0.00019214,1
0.08325195,0.02490234,0.9633789,-2.78626,-1.587786,-0.2137404,0
1.045898,0.3183594,-0.4094238,126.0458,95.96947,17.0458,10
0.101992,0.060024,-0.434381,0.14085864,0.10675808,0.35544704,1
0.08154297,0.02416992,0.9558105,-3.022901,-1.51145,-0.5572519,0
0.1472168,-0.046875,0.03051758,250.1298,-1.229008,-4.641222,10
0.066429,0.073627,-0.320372,-0.05568784,0.0491478,0.00515736,1
0.8879395,0.3085938,0.9033203,-91.0,-55.17557,250.1298,10
-0.013176,-0.113399,-0.05063,0.0588588,-0.0315461,0.36212566,1
0.034709,0.1077,0.805627,0.00012948,-0.0029,-0.00011336,1
0.030561,-0.034038,-0.02318,0.00015054,-0.0054577,-0.00021476,1
0.006039,-0.013115,-0.246013,5.85e-05,-0.0023759,-0.00021528,1
0.07666016,0.02075195,0.9536133,-2.80916,-1.503817,-0.3969466,0
0.08349609,0.01879883,0.9631348,-2.801527,-1.641221,-0.3053435,0
0.02368164,-0.2102051,1.50708,-43.27481,33.68702,3.923664,10
0.08569336,0.01904297,0.9567871,-2.923664,-1.641221,-0.1068702,0
-0.1130371,-0.3850098,0.9882813,34.48092,-14.80153,-246.771,10
0.810791,0.03930664,1.772217,-57.99237,-6.053435,57.63359,10
0.08007813,0.02050781,0.9624023,-2.778626,-1.473282,-0.1603053,0
0.08007813,0.01806641,0.954834,-2.832061,-1.580153,-0.4351145,0
-0.008601,0.02373,0.17568,-0.05077878,0.00351,-0.3773393,1
0.07861328,0.02270508,0.9594727,-2.977099,-1.526718,-0.3587786,0
-0.1086426,0.01757813,1.054932,4.458015,-15.00763,-8.183207,10
0.1933594,-0.08374023,0.02807617,-93.29771,96.16794,-40.54198,10
0.08154297,0.02368164,0.9584961,-2.801527,-1.557252,-0.4274809,0
0.07739258,0.01928711,0.956543,-2.984733,-1.503817,-0.1908397,0
0.1933594,-0.08374023,0.02807617,-93.29771,96.16794,-40.54198,10
-0.2900391,0.3596191,0.6962891,18.94657,36.27481,-248.1832,10
0.07788086,0.02124023,0.9619141,-2.908397,-1.641221,-0.3587786,0
0.02368164,-0.2102051,1.50708,-43.27481,33.68702,3.923664,10
0.3574219,0.1179199,0.4919434,77.9313,-68.35878,68.43511,10
0.120414,-0.072651,-0.774822,-0.02165696,0.01073306,0.08026408,1
-0.041419,0.035929,-0.165676,0.00044148,4.42e-05,-0.00020722,1
0.1425781,0.2434082,0.5439453,183.0992,125.5649,-248.1832,10
0.07080078,0.01660156,0.9599609,-2.885496,-1.618321,-0.3358779,0
-0.1965332,0.3029785,1.633057,-103.1374,-28.45802,43.32061,10
0.012993,0.10724,0.208498,0.12144548,0.24917,0.38344774,1
-0.4919434,0.4462891,0.5134277,-248.1832,-59.19847,-72.38168,10
-0.526552,0.82716,-0.732,-0.02081118,-0.1863334,0.15623998,1
-1.42627,0.1098633,0.9821777,250.1298,235.4122,188.9771,10
0.08349609,0.01953125,0.9680176,-2.923664,-1.503817,-0.4427481,0
0.07104492,0.02124023,0.9672852,-2.80916,-1.618321,-0.2442748,0
-0.023912,-0.183366,0.05795,0.01178034,0.00619138,-1.01702406,1
1.025879,0.3222656,1.931396,23.27481,80.13741,-248.1832,10
0.101992,0.060024,-0.434381,0.14085864,0.10675808,0.35544704,1
0.08984375,0.02148438,0.9655762,-2.885496,-1.51145,-0.3053435,0
0.08276367,0.01904297,0.9589844,-2.587786,-1.618321,-0.3740458,0
0.07519531,0.01708984,0.9624023,-2.839695,-1.412214,-0.2671756,0
-0.036478,0.03739,-0.554795,0.1336478,0.10248,-0.1134796,1
0.06933594,0.01879883,0.9602051,-2.900763,-1.664122,-0.3053435,0
0.120414,-0.072651,-0.774822,-0.02165696,0.01073306,0.08026408,1
0.016775,0.014213,0.037637,-0.02406378,0.11563526,-1.13992658,1
0.062403,0.02934,-0.024766,-0.00067418,-0.013,0.00044122,1
0.1264648,0.1325684,0.3415527,-73.96183,6.755725,-57.90076,10
-0.023119,0.0586,0.018056,-0.00010166,-0.0035,0.00020644,1
0.07543945,0.01806641,0.9633789,-2.900763,-1.549618,-0.259542,0
-0.022021,0.0363,-0.099369,-0.00025298,0.02215,0.00015912,1
0.08251953,0.02075195,0.9592285,-2.763359,-1.473282,-0.389313,0
0.101992,0.060024,-0.434381,0.14085864,0.10675808,0.35544704,1
0.07763672,0.02001953,0.9575195,-2.572519,-1.671756,-0.2748091,0
-0.015494,0.028609,0.015494,2.028e-05,-0.006031,0.00014196,1
0.3137207,0.4118652,0.4787598,101.2366,-46.80916,-75.15267,10
-0.048922,0.063745,-0.629337,0.04199624,0.08587696,0.07166328,1
0.5422363,0.5917969,1.011719,-248.1832,102.7939,93.68702,10
0.7729492,-0.6535645,1.248291,153.3206,-57.19847,-77.75572,10
0.07128906,0.01757813,0.9597168,-2.755725,-1.671756,-0.259542,0
0.079849,-0.0271,0.089792,0.01456052,0.02215,-0.0701948,1
0.07861328,0.02124023,0.9577637,-2.916031,-1.641221,-0.4885496,0
0.08569336,0.01660156,0.9631348,-3.0,-1.564886,-0.3206107,0
0.08178711,0.02124023,0.9638672,-2.80916,-1.519084,-0.3358779,0
0.564189,0.474153,0.876936,0.02665962,0.08352838,-0.09489376,1
0.08081055,0.01660156,0.9628906,-2.778626,-1.564886,-0.1603053,0
0.0871582,0.02075195,0.9633789,-2.709924,-1.694656,-0.4427481,0
0.6745605,-0.05981445,1.161621,-248.1832,-20.90076,103.7252,10
0.4440918,-0.06860352,1.229492,164.313,-221.313,250.1298,10
0.08154297,0.02099609,0.9645996,-2.801527,-1.587786,-0.2748091,0
0.027023,0.135176,0.212524,-0.08271276,0.0107523,0.04062968,1
0.355569,-0.0409,-0.129808,0.01633632,0.33604,0.15122978,1
0.03881836,0.5522461,1.063721,123.626,55.45038,-248.1832,10
-0.465613,-0.118523,-0.222772,-0.00949884,-0.0032305,-0.0614276,1
0.1530762,0.1401367,1.618896,-111.4962,145.2824,27.83206,10
-0.464332,-0.510936,0.415837,-0.04232722,-0.0479424,-0.09477572,1
0.08544922,0.02026367,0.9689941,-2.89313,-1.740458,-0.2900764,0
0.03491211,-0.3969727,0.3347168,75.77863,33.0458,-19.76336,10
-0.06344,-0.005063,-0.181353,0.07299942,0.2916966,-0.01855568,1
0.10187,-0.0262,-0.7381,0.1220505,0.05007,-0.16672084,1
0.07788086,0.02246094,0.9626465,-2.793893,-1.534351,-0.6030535,0
0.07836914,0.02124023,0.967041,-2.664122,-1.664122,-0.3969466,0
0.2253418,0.2568359,0.09277344,138.7328,-66.61832,250.1298,10
0.012993,-0.174,-0.23363,-0.03070392,-0.2705,-0.44137262,1
-0.147559,-0.094062,-0.177205,0.18941286,0.09683726,1.18872442,1
-0.026291,0.037454,0.014579,0.0002171,0.00353626,-0.00013858,1
1.514893,0.05566406,1.780273,-39.64885,-48.42748,28.55725,10
0.08178711,0.02075195,0.9743652,-2.870229,-1.541985,-0.2290076,0
0.08105469,0.0222168,0.9550781,-2.862595,-1.458015,-0.3740458,0
0.04636,-0.090402,-0.05612,-0.00036062,0.01363622,0.0002613,1
-0.037332,0.04929,-0.089914,-0.00057616,-0.0117,0.00035516,1
0.188429,0.179828,0.085461,-7.514e-05,-0.0087805,2.86e-05,1
0.2851563,0.1889648,1.065918,8.206107,39.50382,250.1298,10
0.08837891,0.01879883,0.9768066,-2.938931,-1.503817,-0.1374046,0
0.07885742,0.02246094,0.9624023,-2.908397,-1.70229,-0.4580153,0
0.08544922,0.01538086,0.9606934,-2.931298,-1.610687,-0.3435115,0
0.07641602,0.01782227,0.9611816,-2.992366,-1.610687,-0.3358779,0
0.4326172,-0.2529297,0.9145508,103.5954,-57.93893,114.5115,10
-0.024827,-0.0351,-0.737795,0.03509974,0.05017,-0.36352212,1
0.0769043,0.01928711,0.9504395,-2.908397,-1.51145,-0.1526718,0
0.08784,0.157014,-0.14823,-0.00488644,0.03320382,0.13658996,1
0.088084,0.409249,0.853329,-0.0003926,-0.0010535,0.00018122,1
0.08081055,0.01977539,0.9592285,-2.969466,-1.473282,-0.2748091,0
1.999939,0.1760254,-0.8977051,250.1298,-99.26717,-95.08397,10
0.17019,-0.157014,-0.549976,-0.00867542,-0.0706846,-0.03333382,1
-0.024827,-0.0351,-0.737795,0.03509974,0.05017,-0.36352212,1
0.101992,0.060024,-0.434381,0.14085864,0.10675808,0.35544704,1
-0.009272,-0.0821,-0.481595,-0.00070148,0.03066,0.00040326,1
0.07958984,0.01000977,0.954834,-2.816794,-1.603053,-0.3587786,0
-0.4438477,0.3728027,0.1540527,163.2366,-75.25954,118.8092,10
0.236084,0.4506836,0.7324219,197.6336,-53.16031,-169.9924,10
-0.1462402,-0.02075195,0.8596191,9.977099,-74.9313,212.6031,10
0.210389,0.07216,-0.204777,0.0215748,-0.0162,0.22266868,1
-0.3935547,-0.2060547,1.999939,35.51145,35.99237,-40.0,10
-0.036478,0.03739,-0.554795,0.1336478,0.10248,-0.1134796,1
0.07910156,0.01904297,0.9626465,-2.885496,-1.587786,-0.2366412,0
-0.232959,-0.0245,-0.299693,-0.04406922,-0.1772,-0.24380304,1
0.1625977,0.3903809,1.436035,-141.7099,-49.63359,238.7634,10
0.132675,-0.116,-0.952942,-0.00734916,0.02236,-0.34398364,1
0.026718,-0.0056,0.119804,-0.0240838,-0.076,-0.18974384,1
0.07910156,0.01904297,0.9626465,-2.885496,-1.587786,-0.2366412,0
-0.9909668,0.1682129,1.999939,250.1298,25.9542,-37.70229,10
0.8549805,0.04394531,1.006348,-205.4657,-26.33588,44.83206,10
0.3251953,0.8383789,1.623291,154.0534,43.71756,-248.1832,10
0.0378418,-0.5021973,0.8544922,11.19847,18.36641,15.38168,10
0.0847168,0.01953125,0.9614258,-2.770992,-1.503817,-0.3129771,0
0.003111,0.01409,-0.719068,0.02492854,-0.0187,-0.68220958,1
0.09765625,0.4699707,1.142578,-157.8321,-248.1832,34.77863,10
-0.037271,0.036234,-0.101565,0.18235724,0.09664512,0.48004892,1
0.08618164,0.01831055,0.967041,-2.862595,-1.679389,-0.3816794,0
-0.23363,-0.6934,-0.925126,-0.03461718,-0.0616,-0.09743006,1
0.034465,-0.0006,-0.111325,0.01944202,-0.035,0.13966264,1
-0.015494,0.028609,0.015494,2.028e-05,-0.006031,0.00014196,1
0.6621094,0.6960449,1.618408,86.73283,-21.49618,202.4886,10
0.7580566,-0.06469727,1.519775,197.9771,106.4809,-246.2366,10
0.07739258,0.02539063,0.96875,-3.099237,-1.549618,-0.3129771,0
-0.1782227,0.3864746,1.231201,-159.7099,15.09924,-74.03817,10
0.927002,0.05981445,0.7026367,-146.145,-13.77863,-173.458,10
-0.4711914,0.4309082,1.125488,240.0153,-59.38168,-117.7252,10
-0.057279,-0.1602,-0.041175,0.00058578,-0.0096,-0.00033592,1
-0.078507,0.067405,0.443287,-0.00020072,-0.0056404,0.00016406,1
-0.4438477,0.3728027,0.1540527,163.2366,-75.25954,118.8092,10
-0.5449219,0.9587402,1.079346,-248.1832,-235.1679,-15.33588,10
0.08569336,0.015625,0.9626465,-2.824427,-1.450382,-0.3816794,0
0.09765625,0.4699707,1.142578,-157.8321,-248.1832,34.77863,10
-0.621582,-0.02832031,0.4155273,-173.2061,116.3359,-144.8855,10
0.0769043,0.02099609,0.9621582,-2.80916,-1.557252,-0.4351145,0
-0.6040039,0.03613281,0.9775391,-68.34351,-61.79389,116.5802,10
-0.671427,0.8274,0.688141,-0.11209276,0.07252,0.13324896,1
-0.3491211,-0.0004882813,0.3129883,-248.1832,-77.29008,-0.05343511,10
0.08544922,0.0168457,0.9562988,-3.038168,-1.59542,-0.4732824,0
0.08032227,0.01367188,0.9658203,-2.89313,-1.748092,-0.3206107,0
0.08276367,0.01879883,0.9580078,-2.832061,-1.343511,-0.2824428,0
-1.595215,0.2502441,0.3876953,13.41985,109.3817,-189.229,10
0.02929688,0.7519531,0.9641113,-216.8321,-97.58778,250.1298,10
-0.1130371,-0.3850098,0.9882813,34.48092,-14.80153,-246.771,10
0.2851563,0.1889648,1.065918,8.206107,39.50382,250.1298,10
-0.2805176,0.2619629,0.2912598,-79.75572,-34.92366,25.93893,10
0.07641602,0.02197266,0.9672852,-2.847328,-1.564886,-0.2900764,0
0.099796,-0.027389,-0.236741,0.0249639,-0.1139154,-0.0077441,1
-0.9638672,0.06152344,1.33667,-6.374046,-25.07634,65.16794,10
0.8879395,0.3085938,0.9033203,-91.0,-55.17557,250.1298,10
-0.4604492,0.3544922,1.031738,-248.1832,-29.90076,61.05344,10
0.020557,-0.099491,-0.326716,-0.0002873,0.00169312,0.00028314,1
-0.2397461,0.1447754,1.48584,151.3893,250.1298,-68.53435,10
0.07714844,0.01806641,0.9621582,-2.885496,-1.618321,-0.351145,0
-0.2790527,0.5292969,1.034424,103.8168,11.44275,-230.9695,10
0.0847168,0.01953125,0.9614258,-2.770992,-1.503817,-0.3129771,0
0.07788086,0.02148438,0.9604492,-2.748092,-1.633588,-0.5572519,0
0.07763672,0.015625,0.9631348,-2.847328,-1.328244,-0.2900764,0
-0.2583008,-0.3896484,0.02075195,86.48092,-31.57252,-20.9542,10
-0.038918,0.0327,-0.693631,-0.16175302,0.05634,-0.00725582,1
0.042822,-0.039101,-0.59902,-0.06660264,0.00282386,-0.9812426,1
0.290421,0.25266,0.066917,0.13775424,0.03695,-0.03025542,1
-0.5151367,0.6716309,0.6801758,-248.1832,-15.34351,-7.580153,10
0.07739258,0.02539063,0.96875,-3.099237,-1.549618,-0.3129771,0
-0.01806641,-0.2675781,1.568359,-232.0,-65.51908,-85.84733,10
0.08862305,0.0144043,0.9621582,-2.839695,-1.740458,-0.2290076,0
0.8879395,0.3085938,0.9033203,-91.0,-55.17557,250.1298,10
0.2980957,0.9348145,0.9528809,146.6488,-39.94656,-223.9618,10
0.690918,0.6079102,1.999939,-19.41221,-6.938931,-247.0534,10
0.1188965,0.4262695,0.0004882813,-248.1832,-180.1374,-30.06107,10
0.5422363,0.5917969,1.011719,-248.1832,102.7939,93.68702,10
0.08544922,0.01538086,0.9606934,-2.931298,-1.610687,-0.3435115,0
-0.048922,0.063745,-0.629337,0.04199624,0.08587696,0.07166328,1
0.07763672,0.307373,0.5322266,-35.9542,-78.73283,250.1298,10
0.016226,0.02568,-0.187026,-7.41e-05,0.02241,9.62e-06,1
-0.671427,0.8274,0.688141,-0.11209276,0.07252,0.13324896,1
-0.025132,0.0224,-0.035868,-0.0006123,-0.0031,0.00041028,1
-0.1174316,0.5529785,1.999939,45.67176,48.8168,-202.5573,10
0.08764648,0.02416992,0.9658203,-2.801527,-1.717557,-0.2824428,0
0.3847656,0.3383789,1.015137,-76.19084,-248.1832,110.6336,10
0.08544922,0.02148438,0.9584961,-2.946565,-1.526718,-0.1679389,0
0.08007813,0.015625,0.9555664,-2.839695,-1.625954,-0.1908397,0
0.07373047,0.02270508,0.9602051,-2.824427,-1.603053,-0.351145,0
1.999939,-1.224121,0.4533691,-164.1221,-11.84733,69.17558,10
-0.061793,-0.063623,0.220271,-0.03606876,-0.1683776,-0.15927652,1
0.0793457,0.02148438,0.9597168,-2.961832,-1.610687,-0.4198473,0
0.8601074,0.3007813,0.6904297,-41.25191,-54.34351,-8.267176,10
0.3898926,0.3857422,0.7314453,-69.10687,-121.8473,250.1298,10
0.07763672,0.0246582,0.9533691,-2.854962,-1.679389,-0.2137404,0
0.2246094,0.2050781,1.601563,-53.70992,42.15267,1.389313,10
-0.041419,0.035929,-0.165676,0.00044148,4.42e-05,-0.00020722,1
0.07861328,0.01806641,0.9609375,-2.916031,-1.541985,-0.5343512,0
-0.1782227,0.3864746,1.231201,-159.7099,15.09924,-74.03817,10
-1.431792,-1.1397,0.729133,-0.2222623,0.01217,0.15113904,1
0.1154785,-0.1193848,0.90625,38.83969,12.01527,14.32824,10
0.1782227,-0.06542969,0.3127441,-119.3664,83.72519,-11.25954,10
0.07885742,0.01635742,0.9584961,-2.908397,-1.519084,-0.2824428,0
0.028304,0.38759,0.001586,0.00050882,-0.0071,-0.00030628,1
0.03491211,-0.3969727,0.3347168,75.77863,33.0458,-19.76336,10
0.08276367,0.01879883,0.9580078,-2.832061,-1.343511,-0.2824428,0
0.08276367,0.01977539,0.9560547,-2.923664,-1.664122,-0.4580153,0
0.07641602,0.02075195,0.9611816,-2.793893,-1.366412,-0.4274809,0
0.1098,0.017141,0.155245,0.2707419,-0.0875241,0.02170818,1
0.0871582,0.01635742,0.9606934,-2.801527,-1.610687,-0.389313,0
0.07910156,0.0144043,0.9650879,-2.938931,-1.534351,-0.3435115,0
-0.1184082,0.2868652,1.959473,250.1298,33.03053,-115.0534,10
-0.735599,-0.319274,1.040111,-0.04041674,-0.0595798,-0.59865234,1
-0.3391113,0.2348633,0.6357422,80.42748,75.87023,-208.0229,10
-0.5327148,0.5791016,1.999939,199.3053,97.07633,-248.1832,10
0.1020508,0.138916,-0.2143555,116.0229,-105.9847,69.25191,10
-0.026413,-0.0577,-0.400038,0.170053,-0.0329,0.49680332,1
0.08300781,0.01806641,0.9570313,-2.832061,-1.587786,-0.3206107,0
-0.2900391,0.3596191,0.6962891,18.94657,36.27481,-248.1832,10
0.021045,0.080093,-0.53314,0.0600093,-0.0131677,-0.03889522,1
0.08618164,0.01806641,0.9609375,-2.778626,-1.625954,-0.2519084,0
0.07641602,0.01953125,0.9597168,-2.763359,-1.465649,-0.2213741,0
0.239502,0.607666,1.18335,36.32061,57.51908,-131.1603,10
0.07446289,0.02905273,0.9614258,-2.694656,-1.603053,-0.3816794,0
0.395463,-0.0348,0.970571,0.00052988,-0.0041,-0.00025324,1
-0.290787,0.00397,0.868823,-0.02798926,0.09011,0.22516572,1
1.217285,0.1418457,1.095215,6.183206,-22.06107,-81.39695,10
0.12017,0.078385,0.1464,-0.00050726,0.00228566,0.00037804,1
-0.136091,0.34526,-0.179401,-0.04667286,0.00165438,0.05566808,1
0.050081,-0.0454,-0.02867,0.00765258,0.00057,-0.4709406,1
-0.047092,-0.174704,0.119499,0.05200754,0.12143742,-0.14774578,1
-0.022509,-0.057,-0.188856,0.03679858,-0.1806,0.0632736,1
-1.069092,0.3146973,1.150391,250.1298,-48.00763,49.55725,10
0.2587891,0.1071777,0.8544922,-152.4198,10.22901,-142.2748,10
-0.1782227,0.3864746,1.231201,-159.7099,15.09924,-74.03817,10
0.167323,0.217282,-0.040565,0.05011916,0.04470128,-0.88556806,1
0.08544922,0.02026367,0.9689941,-2.89313,-1.740458,-0.2900764,0
0.100467,0.038064,0.29951,-0.052494,-0.1850129,-0.07948226,1
-0.1396484,-0.4504395,0.9370117,250.1298,-34.26717,-26.33588,10
0.114253,0.03392,0.436699,0.00053196,0.01364,-0.00028964,1
0.08740234,0.01245117,0.9709473,-2.610687,-1.656489,-0.3816794,0
-0.2255859,0.5720215,1.237549,71.58015,-120.855,128.5802,10
0.08666992,0.01855469,0.973877,-2.824427,-1.633588,-0.2824428,0
-0.036356,0.021777,-0.660447,0.07402408,-0.133041,0.74945728,1
0.07519531,0.02001953,0.9555664,-3.0,-1.519084,-0.1679389,0
-0.4118652,0.08227539,0.6396484,83.8168,50.54198,-248.1832,10
0.0847168,0.01733398,0.9611816,-2.89313,-1.480916,-0.3969466,0
0.019276,0.11791,-0.042456,-0.00084474,0.01819,0.00052598,1
0.762207,0.7473145,1.334717,-242.2366,53.72519,34.98473,10
-0.01977539,-0.1154785,1.100586,11.0458,-153.3206,-35.65649,10
0.001647,0.02019,-0.82594,0.07387146,0.01369,-0.10764208,1
0.0847168,0.01953125,0.9614258,-2.770992,-1.503817,-0.3129771,0
0.0793457,0.02148438,0.9597168,-2.961832,-1.610687,-0.4198473,0
-0.1955566,0.425293,0.7407227,8.244275,44.70229,-248.1832,10
0.02867,-0.003233,0.099308,0.02255604,-0.1845493,-0.05810766,1
0.212158,0.39382,0.180804,0.00061178,0.04499,-1.05163786,1
0.042212,0.044286,0.059902,-0.02410564,0.0549328,0.12310428,1
0.0847168,0.01782227,0.9621582,-2.839695,-1.633588,-0.3587786,0
0.08618164,0.0246582,0.9533691,-2.961832,-1.725191,-0.3053435,0
0.020557,-0.099491,-0.326716,-0.0002873,0.00169312,0.00028314,1
0.077531,-0.047153,-0.75091,0.04921176,-0.1469278,0.0480194,1
-0.2194824,0.5029297,1.862793,-36.89313,-175.7176,-2.381679,10
0.8549805,0.04394531,1.006348,-205.4657,-26.33588,44.83206,10
0.395463,-0.0348,0.970571,0.00052988,-0.0041,-0.00025324,1
0.050081,-0.0454,-0.02867,0.00765258,0.00057,-0.4709406,1
0.08129883,0.01831055,0.9545898,-2.931298,-1.549618,-0.4122138,0
0.08520508,0.02001953,0.9562988,-2.854962,-1.541985,-0.3664122,0
0.08544922,0.02026367,0.9521484,-2.80916,-1.458015,-0.3053435,0
0.07983398,0.02416992,0.9589844,-2.900763,-1.557252,-0.2213741,0
0.08544922,0.02026367,0.9689941,-2.89313,-1.740458,-0.2900764,0
0.08105469,0.01928711,0.9638672,-2.900763,-1.625954,-0.1755725,0
0.3693848,-0.2470703,-0.7099609,-248.1832,-29.51908,-74.47328,10
0.0793457,0.01635742,0.9624023,-2.801527,-1.748092,-0.4198473,0
0.2160645,0.3959961,0.6938477,121.771,-45.12977,-158.8779,10
0.7070313,-0.1542969,0.7561035,-1.80916,-30.42748,-32.66412,10
0.9335938,0.9272461,1.250244,-102.3664,-46.69466,-201.0382,10
0.08105469,0.0222168,0.9550781,-2.862595,-1.458015,-0.3740458,0
0.08325195,0.01611328,0.9643555,-2.732824,-1.664122,-0.2442748,0
0.047702,0.10651,0.199714,0.000221,0.02265,-9.776e-05,1
0.07983398,0.01513672,0.9667969,-2.862595,-1.51145,-0.2290076,0
0.08569336,0.01904297,0.9567871,-2.923664,-1.641221,-0.1068702,0
0.1782227,-0.06542969,0.3127441,-119.3664,83.72519,-11.25954,10
-0.142679,0.07229,0.350384,0.00026572,-0.0094,-0.0001677,1
1.011475,-0.5817871,0.4294434,89.38168,-2.908397,68.29771,10
0.100467,0.038064,0.29951,-0.052494,-0.1850129,-0.07948226,1
0.06933594,0.01879883,0.9602051,-2.900763,-1.664122,-0.3053435,0
0.08227539,0.02001953,0.9592285,-2.748092,-1.534351,-0.5648855,0
0.08178711,0.02075195,0.9604492,-2.847328,-1.59542,-0.3129771,0
0.236084,0.4506836,0.7324219,197.6336,-53.16031,-169.9924,10
0.0859375,0.01196289,0.9599609,-2.847328,-1.526718,-0.3816794,0
1.279719,1.344745,1.212497,-0.04066296,-0.2871879,-0.00062452,1
0.08764648,0.02416992,0.9658203,-2.801527,-1.717557,-0.2824428,0
0.07666016,0.02075195,0.9536133,-2.80916,-1.503817,-0.3969466,0
0.0859375,0.01904297,0.9604492,-2.839695,-1.572519,-0.4503817,0
0.08105469,0.0234375,0.9614258,-2.854962,-1.587786,-0.2519084,0
0.0871582,0.01513672,0.9663086,-2.900763,-1.770992,-0.1908397,0
-0.01611328,-0.1262207,0.4934082,-178.8473,1.923664,-67.51908,10
0.4196777,0.4624023,1.335205,-212.5954,85.87786,176.2061,10
0.034465,-0.0006,-0.111325,0.01944202,-0.035,0.13966264,1
-0.1369629,-0.7890625,1.007324,-197.0763,109.3664,104.1603,10
-6.1e-05,-0.1914,-0.02257,-0.0238927,-0.6833,-0.9459866,1
0.02074,-0.057889,0.170983,-0.0783913,-0.0414768,-0.15606682,1
-0.025437,-0.160247,0.38186,0.02511808,0.00747682,-1.04727324,1
1.101807,0.7045898,1.253906,-57.31298,-92.61832,174.1527,10
0.08618164,0.01806641,0.9609375,-2.778626,-1.625954,-0.2519084,0
0.0847168,0.01953125,0.9614258,-2.770992,-1.503817,-0.3129771,0
0.1020508,0.138916,-0.2143555,116.0229,-105.9847,69.25191,10
0.08032227,0.01635742,0.9592285,-2.694656,-1.664122,-0.2900764,0
0.9604492,0.4804688,1.049316,-15.44275,-100.1603,-158.313,10
0.07519531,0.02001953,0.9555664,-3.0,-1.519084,-0.1679389,0
1.514893,0.05566406,1.780273,-39.64885,-48.42748,28.55725,10
0.08105469,0.01806641,0.9641113,-2.992366,-1.503817,-0.2290076,0
0.2587891,0.1071777,0.8544922,-152.4198,10.22901,-142.2748,10
-0.039467,-0.0874,-0.287371,-0.03597516,-0.0294,-0.36534056,1
0.07739258,0.02539063,0.96875,-3.099237,-1.549618,-0.3129771,0
-0.068747,0.1676,-0.408883,-0.00086034,-0.0037,0.0005941,1
0.07275391,0.01953125,0.9553223,-2.78626,-1.48855,-0.2061069,0
-0.04514,0.02647,0.013847,-0.09866194,-0.1876,-0.07731542,1
-0.2583008,-0.3896484,0.02075195,86.48092,-31.57252,-20.9542,10
0.033367,-0.0359,-0.394548,8.684e-05,-0.0098,-4.914e-05,1
0.4294434,-0.07592773,1.070068,20.49618,-5.526718,-7.38168,10
0.4440918,-0.06860352,1.229492,164.313,-221.313,250.1298,10
0.6296387,0.007568359,0.04882813,-26.32061,-86.41222,250.1298,10
-0.2868652,0.4162598,1.999939,-40.56488,15.54198,-39.9313,10
1.75415,-0.05273438,1.999939,-9.137404,-79.0458,137.0534,10
0.08984375,0.02148438,0.9584961,-2.78626,-1.526718,-0.2748091,0
0.7438965,0.3840332,0.6743164,-25.61069,-78.94656,139.4275,10
1.999939,0.03540039,1.940674,126.7786,46.36641,15.32824,10
-0.3798828,0.2128906,1.999939,-190.6183,-197.2366,-30.19847,10
1.030029,-0.1982422,1.791992,250.1298,-248.1832,78.68702,10
-0.057279,-0.1602,-0.041175,0.00058578,-0.0096,-0.00033592,1
0.715332,0.08959961,0.2368164,-248.1832,-15.54962,96.54198,10
0.08007813,0.015625,0.9555664,-2.839695,-1.625954,-0.1908397,0
0.0871582,0.01733398,0.9667969,-2.816794,-1.480916,-0.4503817,0
0.0871582,0.01513672,0.9663086,-2.900763,-1.770992,-0.1908397,0
0.08154297,0.02368164,0.9584961,-2.801527,-1.557252,-0.4274809,0
-0.032147,0.05582,-0.128405,0.00124852,-0.0876,-1.18800032,1
0.02867,-0.003233,0.099308,0.02255604,-0.1845493,-0.05810766,1
-0.442627,0.2019043,0.4943848,241.4504,-108.084,174.0916,10
0.08569336,0.015625,0.9626465,-2.824427,-1.450382,-0.3816794,0
0.032208,0.003538,-0.188063,0.06988618,-0.2120175,0.1466361,1
0.07910156,0.02050781,0.9631348,-2.80916,-1.473282,-0.3358779,0
0.07592773,0.01660156,0.9697266,-2.770992,-1.618321,-0.4351145,0
0.368623,0.820023,0.982039,0.01543516,-0.009132,0.4739605,1
0.07446289,0.02905273,0.9614258,-2.694656,-1.603053,-0.3816794,0
-0.1086426,0.01757813,1.054932,4.458015,-15.00763,-8.183207,10
0.08056641,0.01928711,0.9638672,-3.045802,-1.580153,-0.4198473,0
0.07519531,0.01708984,0.9624023,-2.839695,-1.412214,-0.2671756,0
0.07885742,0.0168457,0.9597168,-2.763359,-1.458015,-0.1221374,0
0.08007813,0.015625,0.9555664,-2.839695,-1.625954,-0.1908397,0
0.7421875,0.4414063,1.966064,-56.98473,30.70992,-145.145,10
-0.017324,-0.0072,-0.777872,0.27964066,-0.0137,-0.0004927,1
0.07617188,0.02099609,0.9580078,-2.885496,-1.534351,-0.2824428,0
0.2883301,0.208252,1.904297,-56.62595,-5.877862,121.3359,10
0.3886719,0.3664551,-0.6020508,-140.374,52.25954,32.0687,10
-0.621582,-0.02832031,0.4155273,-173.2061,116.3359,-144.8855,10
-0.5856934,0.1054688,1.310547,-248.1832,76.86259,-24.38168,10
-0.017019,0.048861,-0.709613,-0.03727958,-0.0855101,-0.0143845,1
0.7971191,0.1203613,0.6708984,-240.6031,7.160306,-23.0458,10
0.4846191,0.2712402,0.9499512,68.69466,-20.52672,-122.2748,10
-0.4118652,0.08227539,0.6396484,83.8168,50.54198,-248.1832,10
0.377651,-0.012932,0.023363,-0.0160771,0.00984724,0.11397646,1
0.08032227,0.01904297,0.9584961,-2.648855,-1.435114,-0.3435115,0
0.08154297,0.0222168,0.954834,-2.854962,-1.633588,-0.1755725,0
0.08203125,0.01831055,0.9609375,-2.885496,-1.473282,-0.0610687,0
-0.046421,-0.029524,-0.088389,0.00038298,0.00294944,-0.0001664,1
0.002196,0.007625,0.182024,-0.00059514,0.00327496,0.00030992,1
-0.258457,-0.160613,0.155245,0.04474626,-0.0777551,-0.04665856,1
0.762207,0.7473145,1.334717,-242.2366,53.72519,34.98473,10
0.078125,0.01660156,0.9638672,-2.78626,-1.503817,-0.2366412,0
0.5258789,0.6679688,1.735107,250.1298,-22.36641,-109.8244,10
0.02867,-0.003233,0.099308,0.02255604,-0.1845493,-0.05810766,1
-0.04575,0.1255,0.426939,0.00014846,-0.0037,-0.00020592,1
0.027023,0.135176,0.212524,-0.08271276,0.0107523,0.04062968,1
0.6767578,-0.06274414,0.9033203,-129.687,-202.2672,-176.2901,10
0.08544922,0.01953125,0.9584961,-2.679389,-1.580153,-0.5114504,0
0.07250977,0.02270508,0.9602051,-2.847328,-1.541985,-0.3664122,0
0.08227539,0.02099609,0.9621582,-2.763359,-1.603053,-0.2824428,0
0.07714844,0.02563477,0.9606934,-2.854962,-1.587786,-0.4198473,0
0.7580566,-0.06469727,1.519775,197.9771,106.4809,-246.2366,10
0.06347656,0.1337891,1.401855,-188.7176,-79.26717,61.91603,10
-0.01977539,-0.1154785,1.100586,11.0458,-153.3206,-35.65649,10
0.006039,-0.013115,-0.246013,5.85e-05,-0.0023759,-0.00021528,1
0.3444824,0.5244141,1.328369,-144.1832,-59.68702,250.1298,10
-0.671427,0.8274,0.688141,-0.11209276,0.07252,0.13324896,1
0.08764648,0.01831055,0.9614258,-2.862595,-1.465649,-0.3358779,0
-0.02562,0.0229,-0.107177,0.00056368,-0.0025,-0.00017108,1
0.09204102,0.01464844,0.963623,-2.770992,-1.587786,-0.2900764,0
-0.02709961,0.3286133,0.6130371,-39.62595,-34.60305,250.1298,10
0.07617188,0.02099609,0.9580078,-2.885496,-1.534351,-0.2824428,0
0.106628,0.02257,-0.174033,0.12892464,0.00026078,-1.09097508,1
0.1633301,-0.08886719,0.1835938,150.0687,-66.58015,60.53435,10
0.07763672,0.307373,0.5322266,-35.9542,-78.73283,250.1298,10
0.0793457,0.02294922,0.9594727,-2.900763,-1.580153,-0.3587786,0
-0.027755,0.00531,-0.12078,-0.00020488,0.01184,0.00013806,1
-0.6523438,0.2268066,1.184082,-19.98473,41.0916,33.1145,10
-0.237793,0.7009277,0.795166,219.687,20.67175,-145.3588,10
0.0769043,0.01831055,0.9580078,-2.870229,-1.51145,-0.4961832,0
-0.309392,0.38046,1.19804,-0.15691208,-0.0352,0.0882401,1
-0.002441406,0.473877,1.757813,-219.687,9.045801,191.8092,10
1.311768,0.3549805,1.21582,160.7405,46.54198,-226.5114,10
0.0769043,0.02124023,0.9587402,-2.847328,-1.70229,-0.4198473,0
0.08007813,0.02050781,0.9624023,-2.778626,-1.473282,-0.1603053,0
0.3574219,0.1179199,0.4919434,77.9313,-68.35878,68.43511,10
0.1020508,0.138916,-0.2143555,116.0229,-105.9847,69.25191,10
0.2980957,0.9348145,0.9528809,146.6488,-39.94656,-223.9618,10
-0.014335,0.03215,0.006588,-0.00017446,0.01841,9.23e-05,1
0.08276367,0.01464844,0.9597168,-2.832061,-1.503817,-0.1221374,0
0.2802734,0.2851563,1.53418,-27.61832,108.5725,-65.22137,10
0.07470703,0.02636719,0.9611816,-2.900763,-1.473282,-0.2366412,0
0.075518,0.04953,0.048617,0.00049556,0.0174,-0.00029016,1
0.08032227,0.01367188,0.9658203,-2.89313,-1.748092,-0.3206107,0
0.034648,0.027816,-0.207827,0.03264482,0.17243512,-0.09488388,1
-0.07275391,0.06958008,1.060059,-248.1832,-141.1069,-19.9771,10
0.07958984,0.0246582,0.9680176,-2.89313,-1.450382,-0.4885496,0
0.08007813,0.02099609,0.963623,-2.824427,-1.633588,-0.351145,0
0.1201172,0.03588867,0.1523438,148.6183,139.0687,-135.084,10
0.1154785,-0.1193848,0.90625,38.83969,12.01527,14.32824,10
0.01635742,-0.2797852,0.09082031,-182.9466,-46.58779,-104.6947,10
0.1538086,0.0002441406,0.9445801,-27.83969,-34.38931,-19.07634,10
-0.2900391,0.3596191,0.6962891,18.94657,36.27481,-248.1832,10
-0.5449219,0.9587402,1.079346,-248.1832,-235.1679,-15.33588,10
-0.5351563,0.6464844,1.195313,250.1298,-31.96947,-80.0229,10
0.07861328,0.4311523,0.7822266,250.1298,-137.9313,106.8244,10
0.07641602,0.01782227,0.9611816,-2.992366,-1.610687,-0.3358779,0
0.034648,0.027816,-0.207827,0.03264482,0.17243512,-0.09488388,1
0.715332,0.08959961,0.2368164,-248.1832,-15.54962,96.54198,10
0.08911133,0.02172852,0.9663086,-3.061069,-1.679389,-0.4351145,0
0.2016602,-0.2236328,-1.093018,133.2519,-67.66412,-5.175572,10
0.1154785,-0.1193848,0.90625,38.83969,12.01527,14.32824,10
0.023912,0.077653,0.43676,0.00060866,0.02649192,-0.00033722,1
0.105652,-0.06527,-0.236741,-0.01366456,0.06194916,-0.68244072,1
-0.057279,-0.1602,-0.041175,0.00058578,-0.0096,-0.00033592,1
-0.2714844,-0.1809082,-0.0456543,74.23664,-133.9084,-110.8779,10
-0.2900391,0.3596191,0.6962891,18.94657,36.27481,-248.1832,10
0.09057617,0.02246094,0.953125,-2.969466,-1.465649,-0.3129771,0
0.020984,0.012505,0.126087,0.01684436,0.05750628,0.07449468,1
0.07983398,0.01782227,0.9543457,-2.732824,-1.549618,-0.2900764,0
0.08374023,0.02246094,0.9663086,-3.045802,-1.603053,-0.4274809,0
0.07983398,0.01513672,0.9667969,-2.862595,-1.51145,-0.2290076,0
0.07250977,0.02270508,0.9602051,-2.847328,-1.541985,-0.3664122,0
0.056547,0.03361,0.18788,0.14338584,-0.0631,-0.16829488,1
0.07641602,0.02197266,0.9672852,-2.847328,-1.564886,-0.2900764,0
0.4067383,0.5136719,1.147949,48.47328,29.13741,-248.1832,10
0.6113281,0.1992188,0.4897461,113.2901,-126.6947,129.2214,10
-0.7233887,0.4660645,1.400391,-82.12214,82.64886,-241.4122,10
0.09082031,0.02416992,0.9611816,-2.89313,-1.526718,-0.5038168,0
-0.4758301,-0.4580078,1.762939,250.1298,-56.31298,-2.442748,10
0.088084,0.409249,0.853329,-0.0003926,-0.0010535,0.00018122,1
0.08618164,0.01806641,0.9609375,-2.778626,-1.625954,-0.2519084,0
-0.007442,-0.0671,-0.111691,-0.05174936,-0.1631,-0.1930929,1
0.08276367,0.01367188,0.9555664,-3.038168,-1.618321,-0.2900764,0
0.3408203,-0.02490234,0.3825684,-150.6947,-64.98473,-173.7328,10
0.2802734,0.2851563,1.53418,-27.61832,108.5725,-65.22137,10
0.018788,0.026962,0.119621,0.03233308,0.03151122,0.0958269,1
-0.5449219,0.9587402,1.079346,-248.1832,-235.1679,-15.33588,10
0.081801,0.061366,0.11102,-0.01428856,0.09783176,0.41475824,1
-0.8669434,-0.1330566,0.557373,63.08397,107.6031,-228.0916,10
-0.105164,-0.133041,0.117364,0.04072458,0.10822786,-138228714.0,1
1.999939,0.4558105,1.421387,0.4580153,80.38168,-5.435114,10
-0.027755,0.00531,-0.12078,-0.00020488,0.01184,0.00013806,1
-0.184159,-0.0375,0.257115,0.07384806,0.0803,-0.25837032,1
-0.4367676,0.03442383,0.7253418,62.21374,91.03053,-217.542,10
0.08740234,0.01464844,0.9606934,-2.80916,-1.557252,-0.3053435,0
1.067627,0.5598145,1.625488,-180.8931,-7.167939,-29.27481,10
-0.5151367,0.6716309,0.6801758,-248.1832,-15.34351,-7.580153,10
0.08178711,0.02075195,0.9604492,-2.847328,-1.59542,-0.3129771,0
0.8068848,-0.01147461,1.227051,-248.1832,-209.2748,-134.458,10
0.0690918,0.02539063,0.9604492,-2.694656,-1.625954,-0.5038168,0
-0.021106,-0.0179,-0.764391,0.16346746,-0.0637,-0.19607796,1
0.3857422,-0.002929688,0.8623047,-37.20611,64.0,-204.0458,10
0.09033203,0.01708984,0.953125,-2.717557,-1.572519,-0.2977099,0
1.011475,-0.5817871,0.4294434,89.38168,-2.908397,68.29771,10
0.103395,0.070638,-0.056059,0.06709482,0.10946468,0.19897956,1
0.08032227,0.02197266,0.9543457,-2.862595,-1.587786,-0.3664122,0
-0.2387695,0.4484863,1.477295,-248.1832,-5.458015,133.0534,10
-0.5351563,0.6464844,1.195313,250.1298,-31.96947,-80.0229,10
-0.085827,0.05612,0.008662,0.12876864,-0.0156,0.45279598,1
-0.015494,0.028609,0.015494,2.028e-05,-0.006031,0.00014196,1
0.2587891,0.1071777,0.8544922,-152.4198,10.22901,-142.2748,10
-0.017324,-0.0072,-0.777872,0.27964066,-0.0137,-0.0004927,1
0.07861328,0.01806641,0.9609375,-2.916031,-1.541985,-0.5343512,0
0.115168,0.002257,-0.737063,-0.08608262,0.2023918,0.11714976,1
0.07910156,0.01855469,0.9682617,-3.10687,-1.717557,-0.3206107,0
0.01635742,-0.2797852,0.09082031,-182.9466,-46.58779,-104.6947,10
-0.2097168,-0.434082,1.999939,169.5573,12.53435,20.18321,10
0.009516,0.053802,-0.926224,-0.05749952,0.10546172,-0.43877574,1
-0.117364,0.03599,-0.087535,-0.00054626,0.01251,0.00036426,1
-0.1306152,0.2272949,-0.07373047,244.5343,-94.58778,58.58015,10
-0.290787,0.00397,0.868823,-0.02798926,0.09011,0.22516572,1
-0.091439,-0.326167,-0.854366,0.00048958,0.02433236,-0.00024544,1
0.880127,0.310791,0.7207031,250.1298,-147.6718,-107.6641,10
1.510254,0.2832031,1.118164,-56.92366,-33.68702,73.32825,10
0.07788086,0.02246094,0.9626465,-2.793893,-1.534351,-0.6030535,0
-0.070699,-0.0417,-0.395219,-0.00055588,0.01491,0.00035074,1
-0.6523438,0.2268066,1.184082,-19.98473,41.0916,33.1145,10
0.08251953,0.02197266,0.9633789,-2.793893,-1.70229,-0.4427481,0
0.3259277,0.9580078,0.7670898,-18.93893,-92.52672,-248.1832,10
-0.6523438,0.2268066,1.184082,-19.98473,41.0916,33.1145,10
0.003172,-0.0417,0.032208,0.01416896,-0.0747,-0.00455728,1
-0.5151367,0.6716309,0.6801758,-248.1832,-15.34351,-7.580153,10
0.206543,0.1411133,1.630371,-16.0687,-19.65649,-2.10687,10
0.034465,-0.0006,-0.111325,0.01944202,-0.035,0.13966264,1
-0.3894043,0.2302246,0.08837891,165.9008,-91.0458,168.1908,10
-0.046665,0.07662,0.048861,-0.06951542,-0.0864,-0.45023576,1
0.0690918,0.02539063,0.9604492,-2.694656,-1.625954,-0.5038168,0
0.028487,-0.0597,0.081313,-8.97e-05,0.02086,6.006e-05,1
-0.038918,0.0327,-0.693631,-0.16175302,0.05634,-0.00725582,1
0.07617188,0.02099609,0.9580078,-2.885496,-1.534351,-0.2824428,0
-0.442627,0.2019043,0.4943848,241.4504,-108.084,174.0916,10
0.07519531,0.02001953,0.9555664,-3.0,-1.519084,-0.1679389,0
-0.04514,0.02647,0.013847,-0.09866194,-0.1876,-0.07731542,1
-0.051606,0.01068,-0.716384,-0.05113368,-0.2874,0.46322172,1
0.3310547,0.5878906,1.557617,-4.419847,-15.56489,5.480916,10
0.08276367,0.02197266,0.9665527,-2.870229,-1.839695,-0.3587786,0
0.07763672,0.02001953,0.9575195,-2.572519,-1.671756,-0.2748091,0
-0.026047,-0.0378,-0.346236,-0.00018304,-0.0028,9.048e-05,1
-0.271511,-0.38491,0.413031,0.01388816,0.14653366,0.18623202,1
-0.325923,-0.337025,0.572363,0.01826526,0.0063245,0.15277886,1
0.4799805,-0.08203125,0.8408203,-11.25191,4.641222,22.69466,10
0.467041,-0.04418945,0.06982422,179.8855,49.58779,-136.0305,10
0.104432,0.005002,0.059414,-0.03055702,-0.1724975,0.10731006,1
0.3742676,-1.005615,0.7358398,-14.9542,51.82443,-12.77863,10
-0.290787,0.00397,0.868823,-0.02798926,0.09011,0.22516572,1
0.1679688,0.08178711,-0.5090332,-35.85496,22.12214,4.221374,10
0.013115,0.0313,-0.025254,0.00014742,-0.0027,-4.108e-05,1
0.07910156,0.01367188,0.9614258,-2.725191,-1.427481,-0.3206107,0
-0.164822,-0.0563,0.055388,-0.188838,-0.0075,0.01750632,1
-0.258457,-0.160613,0.155245,0.04474626,-0.0777551,-0.04665856,1
0.3693848,-0.2470703,-0.7099609,-248.1832,-29.51908,-74.47328,10
0.0769043,0.02124023,0.9587402,-2.847328,-1.70229,-0.4198473,0
0.08154297,0.01904297,0.9626465,-2.824427,-1.572519,-0.2671756,0
0.08569336,0.02197266,0.9658203,-2.793893,-1.717557,-0.4045802,0
0.028487,-0.0597,0.081313,-8.97e-05,0.02086,6.006e-05,1
0.02074,-0.057889,0.170983,-0.0783913,-0.0414768,-0.15606682,1
0.239502,0.607666,1.18335,36.32061,57.51908,-131.1603,10
0.0769043,0.01586914,0.9633789,-2.748092,-1.519084,-0.3282443,0
0.07714844,0.02197266,0.9560547,-3.038168,-1.687023,-0.2366412,0
-0.007442,-0.0671,-0.111691,-0.05174936,-0.1631,-0.1930929,1
-0.049227,-0.0044,-0.323422,-0.00015132,-0.0025,0.00024648,1
0.028487,-0.0597,0.081313,-8.97e-05,0.02086,6.006e-05,1
0.4833984,0.2839355,1.252197,-70.40458,89.93893,12.75572,10
0.08276367,0.01977539,0.9560547,-2.923664,-1.664122,-0.4580153,0
0.08178711,0.02001953,0.9692383,-2.900763,-1.656489,-0.4427481,0
-0.2868652,0.4162598,1.999939,-40.56488,15.54198,-39.9313,10
0.08056641,0.0168457,0.9558105,-2.801527,-1.725191,-0.3053435,0
0.03125,-0.03564453,1.692139,-109.6412,39.67939,-23.90076,10
0.07788086,0.02124023,0.9619141,-2.908397,-1.641221,-0.3587786,0
0.07543945,0.0234375,0.9628906,-2.732824,-1.748092,-0.2519084,0
0.07446289,0.0222168,0.9663086,-3.053435,-1.427481,-0.2748091,0
0.07543945,0.01904297,0.958252,-2.870229,-1.748092,-0.4351145,0
0.08325195,0.02148438,0.9523926,-3.015267,-1.694656,-0.1221374,0
0.09545898,0.8046875,0.6914063,-198.3435,-114.7939,250.1298,10
0.199592,0.24961,0.132187,-0.10638134,-0.003,0.15384824,1
0.07763672,0.02001953,0.9575195,-2.572519,-1.671756,-0.2748091,0
0.08837891,0.01879883,0.9768066,-2.938931,-1.503817,-0.1374046,0
0.127856,-0.190747,-0.551562,-0.01152918,0.00476996,0.02559076,1
0.07739258,0.02441406,0.9680176,-2.946565,-1.656489,-0.2213741,0
0.0847168,0.01733398,0.9611816,-2.89313,-1.480916,-0.3969466,0
0.3439941,0.5085449,1.301025,-236.7481,-141.6336,34.12977,10
0.08569336,0.02197266,0.9658203,-2.793893,-1.717557,-0.4045802,0
-0.079788,-0.139141,-0.228506,-0.02912442,-0.0413028,0.49937316,1
-0.1184082,0.2868652,1.959473,250.1298,33.03053,-115.0534,10
0.069906,0.11499,-0.893162,0.01760122,0.05524,0.09399728,1
0.112789,-0.349,-0.426634,-0.20120594,0.03833,-0.03096548,1
0.08129883,0.02001953,0.9562988,-2.862595,-1.671756,-0.2442748,0
0.07788086,0.02148438,0.9604492,-2.748092,-1.633588,-0.5572519,0
0.08178711,0.02001953,0.9692383,-2.900763,-1.656489,-0.4427481,0
-0.4919434,0.4462891,0.5134277,-248.1832,-59.19847,-72.38168,10
0.810791,0.03930664,1.772217,-57.99237,-6.053435,57.63359,10
-0.2717285,0.4716797,0.5092773,250.1298,-98.25191,143.0687,10
0.08276367,0.01977539,0.9560547,-2.923664,-1.664122,-0.4580153,0
-0.105164,0.00567,-0.790804,0.0255268,-0.5409,1.1256076,1
0.2160645,0.3959961,0.6938477,121.771,-45.12977,-158.8779,10
0.08642578,0.01586914,0.9643555,-2.847328,-1.435114,-0.3282443,0
0.112789,-0.349,-0.426634,-0.20120594,0.03833,-0.03096548,1
0.3259277,0.9580078,0.7670898,-18.93893,-92.52672,-248.1832,10
-6.1e-05,-0.1914,-0.02257,-0.0238927,-0.6833,-0.9459866,1
0.3974609,-0.1611328,0.8820801,-13.48092,-0.7022901,-6.908397,10
-0.4711914,0.4309082,1.125488,240.0153,-59.38168,-117.7252,10
-0.9707031,0.291748,1.182129,250.1298,87.40458,-204.2137,10
0.08276367,0.01879883,0.9580078,-2.832061,-1.343511,-0.2824428,0
0.08081055,0.02050781,0.9562988,-2.824427,-1.580153,-0.2061069,0
0.08911133,0.02172852,0.9663086,-3.061069,-1.679389,-0.4351145,0
0.1965332,0.1535645,0.7226563,-146.1756,-27.87023,164.6641,10
0.08276367,0.02197266,0.9665527,-2.870229,-1.839695,-0.3587786,0
-1.069092,0.3146973,1.150391,250.1298,-48.00763,49.55725,10
-0.23363,-0.6934,-0.925126,-0.03461718,-0.0616,-0.09743006,1
1.061035,-0.229248,1.445313,250.1298,3.251908,11.12977,10
0.0871582,0.02099609,0.9638672,-2.954198,-1.610687,-0.4885496,0
-0.4118652,0.08227539,0.6396484,83.8168,50.54198,-248.1832,10
0.08032227,0.01904297,0.9584961,-2.648855,-1.435114,-0.3435115,0
-0.052582,0.028304,-0.133834,-0.00032656,-0.0042978,5.408e-05,1
0.034709,0.1077,0.805627,0.00012948,-0.0029,-0.00011336,1
0.07739258,0.01928711,0.956543,-2.984733,-1.503817,-0.1908397,0
0.0715332,0.02050781,0.9650879,-2.770992,-1.618321,-0.2748091,0
0.07446289,0.2316895,1.154541,-248.1832,146.6336,35.54962,10
-0.124562,0.053436,0.024705,0.21720244,-0.018942,-0.12631554,1
-0.101016,-0.197762,-0.574864,0.00057434,-0.0021809,-0.00028496,1
-0.9707031,0.291748,1.182129,250.1298,87.40458,-204.2137,10
-1.173828,0.2480469,0.6760254,-14.22901,-248.1832,-33.48855,10
0.1679688,0.08178711,-0.5090332,-35.85496,22.12214,4.221374,10
0.1999512,0.246582,1.580811,-53.69466,4.419847,6.251908,10
0.2099609,0.6472168,0.5805664,113.4962,-35.56488,-248.1832,10
0.091683,0.094611,0.085644,-0.00030732,0.00495794,0.00025558,1
-0.4616699,-0.05737305,1.166016,230.5114,109.8702,-228.0687,10
0.212158,0.39382,0.180804,0.00061178,0.04499,-1.05163786,1
0.7580566,-0.06469727,1.519775,197.9771,106.4809,-246.2366,10
0.2851563,0.1889648,1.065918,8.206107,39.50382,250.1298,10
0.05307,-0.143228,0.25132,-0.5538442,-0.2586436,1.20891992,1
0.9851074,-0.168457,0.001708984,249.7939,127.7099,250.1298,10
0.070943,0.016592,0.107116,-0.03269578,-0.1274806,-0.05779176,1
0.0793457,0.02270508,0.9641113,-2.885496,-1.541985,-0.3053435,0
0.500017,0.11206,0.013298,-0.10818574,0.00717,0.13930436,1
0.028731,-0.0128,0.275476,0.00010036,-0.0042,-2.08e-06,1
0.08300781,0.0222168,0.9543457,-2.908397,-1.480916,-0.3129771,0
0.1323242,0.06884766,0.9731445,-5.076336,39.00763,-0.2748091,10
0.08398438,0.02075195,0.9570313,-2.923664,-1.717557,-0.3358779,0
1.061035,-0.229248,1.445313,250.1298,3.251908,11.12977,10
0.028792,-0.0168,0.240645,3.094e-05,-0.0033,-2.34e-05,1
0.1425781,0.2434082,0.5439453,183.0992,125.5649,-248.1832,10
0.07763672,0.02001953,0.9575195,-2.572519,-1.671756,-0.2748091,0
1.999939,0.03540039,1.940674,126.7786,46.36641,15.32824,10
0.132675,-0.116,-0.952942,-0.00734916,0.02236,-0.34398364,1
0.07470703,0.02270508,0.9594727,-2.679389,-1.473282,-0.2671756,0
0.07543945,0.02148438,0.9682617,-2.824427,-1.519084,-0.3129771,0
0.08105469,0.01171875,0.949707,-2.900763,-1.564886,-0.2671756,0
0.074725,0.02001,-0.177449,-0.00100906,-0.081,0.13692198,1
0.013481,0.059719,-0.71736,0.05635552,-0.0160407,-0.13406484,1
0.097844,0.083997,0.586454,2.782e-05,-0.0009649,0.00012376,1
0.07666016,0.01586914,0.9597168,-2.725191,-1.587786,-0.4427481,0
0.07592773,0.02685547,0.9658203,-2.832061,-1.610687,-0.1526718,0
-0.4604492,0.3544922,1.031738,-248.1832,-29.90076,61.05344,10
0.7438965,0.3840332,0.6743164,-25.61069,-78.94656,139.4275,10
0.001647,0.02019,-0.82594,0.07387146,0.01369,-0.10764208,1
0.6467285,-0.1196289,-0.2810059,-142.2748,-80.41222,209.3359,10
-0.068747,0.1676,-0.408883,-0.00086034,-0.0037,0.0005941,1
0.0793457,0.01757813,0.9616699,-2.931298,-1.625954,-0.259542,0
-0.023912,-0.183366,0.05795,0.01178034,0.00619138,-1.01702406,1
0.08520508,0.01611328,0.9584961,-2.916031,-1.671756,-0.2824428,0
-0.091439,-0.326167,-0.854366,0.00048958,0.02433236,-0.00024544,1
-0.001159,-0.00183,0.010309,0.00022204,-0.0013655,-2.704e-05,1
0.14152,-0.041907,-0.188063,-0.10806094,-0.2622305,0.52104078,1
0.025193,-0.0009,-0.011163,-0.00028002,0.03108,0.00017498,1
0.1650391,0.5534668,0.8120117,116.8321,190.9084,250.1298,10
0.08081055,0.01977539,0.9592285,-2.969466,-1.473282,-0.2748091,0
0.07983398,0.01977539,0.9609375,-2.748092,-1.78626,-0.3129771,0
0.012749,0.06314,0.344955,-0.0173914,-0.0314,0.1650155,1
-0.2827148,0.5290527,1.410645,139.7176,41.0,65.32825,10
-0.015921,0.01043,-0.55327,-0.23411622,0.03306,0.13851032,1
0.048068,-0.000915,-0.000732,-0.00036712,-0.0059098,0.00012246,1
0.4416504,0.05053711,0.3601074,166.8931,103.6183,-113.7863,10
0.07714844,0.02563477,0.9606934,-2.854962,-1.587786,-0.4198473,0
-0.063501,0.0163,0.04148,0.00030082,-0.0033,-8.918e-05,1
-0.2890625,0.1564941,0.3210449,164.1221,-118.1756,250.1298,10
-0.23363,-0.6934,-0.925126,-0.03461718,-0.0616,-0.09743006,1
-1.32431,-0.450363,-0.623969,-0.05344872,-0.0242341,-0.02418962,1
0.09838867,0.2084961,1.681641,-28.98473,21.14504,11.15267,10
0.07836914,0.01806641,0.9638672,-2.923664,-1.572519,-0.2061069,0
0.188429,0.179828,0.085461,-7.514e-05,-0.0087805,2.86e-05,1
0.07788086,0.02026367,0.9643555,-2.885496,-1.679389,-0.1908397,0
0.0793457,0.0246582,0.9577637,-2.671756,-1.740458,-0.4045802,0
0.019276,0.11791,-0.042456,-0.00084474,0.01819,0.00052598,1
-0.117364,0.03599,-0.087535,-0.00054626,0.01251,0.00036426,1
0.3439941,0.5085449,1.301025,-236.7481,-141.6336,34.12977,10
-0.513803,-0.271023,1.14314,-0.07054164,-0.0482565,0.1631019,1
0.039223,0.09174,-0.20984,5.512e-05,0.01484,7.54e-06,1
0.07568359,0.01757813,0.9577637,-2.89313,-1.473282,-0.259542,0
0.07421875,0.01977539,0.9570313,-2.725191,-1.549618,-0.2442748,0
-0.061793,-0.063623,0.220271,-0.03606876,-0.1683776,-0.15927652,1
0.08154297,0.01928711,0.9575195,-2.748092,-1.519084,-0.4045802,0
0.07397461,0.02001953,0.9616699,-2.885496,-1.503817,-0.2290076,0
0.08081055,0.02050781,0.9562988,-2.824427,-1.580153,-0.2061069,0
-0.1396484,-0.4504395,0.9370117,250.1298,-34.26717,-26.33588,10
-0.019886,0.13194,0.06649,0.01292434,-0.072,-0.01716884,1
-0.117669,-0.002806,0.364414,-0.02589106,-0.1547985,-0.14309204,1
0.08178711,0.02270508,0.9572754,-3.091603,-1.534351,-0.4045802,0
0.5456543,0.3095703,1.313965,-70.09924,13.38168,-6.160306,10
0.233508,0.17123,0.536739,-0.00048516,-0.0069,0.0003315,1
1.173828,-0.2524414,-1.231689,180.1908,139.2366,55.31298,10
0.08666992,0.01928711,0.9628906,-3.061069,-1.664122,-0.3053435,0
-0.061793,-0.063623,0.220271,-0.03606876,-0.1683776,-0.15927652,1
0.08618164,0.01806641,0.9609375,-2.778626,-1.625954,-0.2519084,0
0.07885742,0.0222168,0.9606934,-2.931298,-1.244275,-0.3129771,0
1.999939,-1.224121,0.4533691,-164.1221,-11.84733,69.17558,10
0.07446289,0.02075195,0.9631348,-2.801527,-1.610687,-0.3129771,0
0.08105469,0.0222168,0.9550781,-2.862595,-1.458015,-0.3740458,0
0.07299805,0.02294922,0.9714355,-2.679389,-1.59542,-0.1603053,0
0.07739258,0.02246094,0.9614258,-2.763359,-1.564886,-0.3206107,0
0.08007813,0.01806641,0.954834,-2.832061,-1.580153,-0.4351145,0
-0.3894043,0.2302246,0.08837891,165.9008,-91.0458,168.1908,10
0.08422852,0.02001953,0.9665527,-2.816794,-1.442748,-0.1068702,0
0.08764648,0.01831055,0.9614258,-2.862595,-1.465649,-0.3358779,0
0.08569336,0.01660156,0.9631348,-3.0,-1.564886,-0.3206107,0
0.012261,-0.275415,-0.465491,-0.03362528,-0.175538,0.07726134,1
0.106628,0.02257,-0.174033,0.12892464,0.00026078,-1.09097508,1
0.199592,0.24961,0.132187,-0.10638134,-0.003,0.15384824,1
0.3898926,0.3857422,0.7314453,-69.10687,-121.8473,250.1298,10
-0.1757813,0.237793,0.6018066,-86.00764,117.0153,-211.2061,10
0.07910156,0.02050781,0.9631348,-2.80916,-1.473282,-0.3358779,0
-0.171593,-0.1281,0.038674,0.08585252,-0.1853,-0.42976284,1
0.0769043,0.01831055,0.9580078,-2.870229,-1.51145,-0.4961832,0
0.0793457,0.01611328,0.9577637,-2.931298,-1.664122,-0.3664122,0
0.09033203,0.01708984,0.953125,-2.717557,-1.572519,-0.2977099,0
0.07275391,0.01953125,0.9553223,-2.78626,-1.48855,-0.2061069,0
-0.4758301,-0.4580078,1.762939,250.1298,-56.31298,-2.442748,10
0.06933594,0.01879883,0.9602051,-2.900763,-1.664122,-0.3053435,0
0.009516,0.053802,-0.926224,-0.05749952,0.10546172,-0.43877574,1
-0.036478,0.03739,-0.554795,0.1336478,0.10248,-0.1134796,1
0.015738,-0.060085,-0.024522,0.0318877,-0.2018944,0.0311454,1
0.2253418,0.2568359,0.09277344,138.7328,-66.61832,250.1298,10
-0.045689,-0.018605,-0.129137,-0.0556647,-0.1255418,0.06188312,1
0.09057617,0.02246094,0.953125,-2.969466,-1.465649,-0.3129771,0
0.08007813,0.015625,0.9555664,-2.839695,-1.625954,-0.1908397,0
0.07421875,0.01733398,0.9638672,-2.862595,-1.526718,-0.351145,0
-0.4604492,0.3544922,1.031738,-248.1832,-29.90076,61.05344,10
0.08032227,0.0234375,0.9606934,-2.80916,-1.503817,-0.3358779,0
0.2246094,0.2050781,1.601563,-53.70992,42.15267,1.389313,10
0.08764648,0.01220703,0.9638672,-2.78626,-1.587786,-0.2900764,0
-0.2248535,0.0546875,0.5100098,250.1298,187.313,250.1298,10
0.08642578,0.01586914,0.9643555,-2.847328,-1.435114,-0.3282443,0
0.076921,-0.0554,-0.429806,-0.00077922,-0.0031,0.00053742,1
-0.026291,0.037454,0.014579,0.0002171,0.00353626,-0.00013858,1
0.104432,0.005002,0.059414,-0.03055702,-0.1724975,0.10731006,1
-0.164822,-0.0563,0.055388,-0.188838,-0.0075,0.01750632,1
-0.671427,0.8274,0.688141,-0.11209276,0.07252,0.13324896,1
0.09838867,0.2084961,1.681641,-28.98473,21.14504,11.15267,10
0.118828,0.007625,0.293715,0.01547182,0.26495742,0.53067716,1
0.063196,0.07985,0.147498,-0.197028,0.14168,1.62338878,1
0.08569336,0.02294922,0.9589844,-3.122137,-1.458015,-0.3053435,0
-0.4367676,0.03442383,0.7253418,62.21374,91.03053,-217.542,10
0.07885742,0.0222168,0.9606934,-2.931298,-1.244275,-0.3129771,0
1.111328,0.3312988,1.037842,-248.1832,-15.80153,-108.9084,10
0.07543945,0.01806641,0.9633789,-2.900763,-1.549618,-0.259542,0
0.07788086,0.02026367,0.9643555,-2.885496,-1.679389,-0.1908397,0
1.101807,0.7045898,1.253906,-57.31298,-92.61832,174.1527,10
0.08227539,0.01831055,0.9643555,-2.908397,-1.648855,-0.3664122,0
1.101807,0.7045898,1.253906,-57.31298,-92.61832,174.1527,10
0.08569336,0.02148438,0.9589844,-2.885496,-1.541985,-0.2671756,0
0.114253,0.03392,0.436699,0.00053196,0.01364,-0.00028964,1
1.510254,0.2832031,1.118164,-56.92366,-33.68702,73.32825,10
0.012993,-0.174,-0.23363,-0.03070392,-0.2705,-0.44137262,1
0.1633301,-0.08886719,0.1835938,150.0687,-66.58015,60.53435,10
-0.052338,-0.1672,-0.687653,0.00053456,-0.003,-0.00035282,1
0.4638672,0.3898926,1.58252,-245.4657,-78.32825,-228.8626,10
-0.020496,-0.037149,0.117486,0.10626512,0.19155188,-0.31511298,1
0.03125,-0.03564453,1.692139,-109.6412,39.67939,-23.90076,10
0.08227539,0.02685547,0.963623,-2.946565,-1.587786,-0.1679389,0
0.08227539,0.02001953,0.9592285,-2.748092,-1.534351,-0.5648855,0
1.025879,0.3222656,1.931396,23.27481,80.13741,-248.1832,10
0.005307,0.008906,0.08723,0.00083486,-0.2275003,-0.17142788,1
0.08154297,0.02416992,0.9558105,-3.022901,-1.51145,-0.5572519,0
0.690918,0.6079102,1.999939,-19.41221,-6.938931,-247.0534,10
0.17019,-0.157014,-0.549976,-0.00867542,-0.0706846,-0.03333382,1
-0.114802,0.1237,0.706624,-0.0004121,-0.0035,0.0001989,1
0.018117,-0.0703,0.393145,0.00079508,0.0166,-0.00045682,1
0.08032227,0.02197266,0.9543457,-2.862595,-1.587786,-0.3664122,0
-0.1369629,-0.7890625,1.007324,-197.0763,109.3664,104.1603,10
-1.368652,0.2341309,1.999939,225.542,49.25954,-59.32061,10
-0.045689,-0.018605,-0.129137,-0.0556647,-0.1255418,0.06188312,1
0.07519531,0.01806641,0.9655762,-2.832061,-1.732824,-0.3282443,0
-0.015921,0.01043,-0.55327,-0.23411622,0.03306,0.13851032,1
-0.621582,-0.02832031,0.4155273,-173.2061,116.3359,-144.8855,10
0.1813965,0.5529785,1.819336,-67.87786,82.73283,78.13741,10
0.099796,-0.027389,-0.236741,0.0249639,-0.1139154,-0.0077441,1
0.08129883,0.01831055,0.9545898,-2.931298,-1.549618,-0.4122138,0
0.1933594,-0.08374023,0.02807617,-93.29771,96.16794,-40.54198,10
-0.184159,-0.0375,0.257115,0.07384806,0.0803,-0.25837032,1
0.0793457,0.02294922,0.9685059,-2.862595,-1.679389,-0.4656488,0
0.025193,-0.0009,-0.011163,-0.00028002,0.03108,0.00017498,1
-0.042517,-0.0518,0.014213,-9.438e-05,-0.0025,0.00010192,1
0.07446289,0.0222168,0.9663086,-3.053435,-1.427481,-0.2748091,0
0.099796,-0.027389,-0.236741,0.0249639,-0.1139154,-0.0077441,1
-0.5690918,0.2717285,0.9858398,-248.1832,-6.549618,-24.24427,10
0.3662109,0.3857422,0.9470215,241.0229,210.8321,-203.687,10
-0.1086426,0.01757813,1.054932,4.458015,-15.00763,-8.183207,10
-0.2194824,0.5029297,1.862793,-36.89313,-175.7176,-2.381679,10
-0.169092,-0.2445,0.167201,0.0046111,0.17959,0.12303122,1
-0.5449219,0.9587402,1.079346,-248.1832,-235.1679,-15.33588,10
0.07885742,0.02246094,0.9624023,-2.908397,-1.70229,-0.4580153,0
0.08154297,0.0222168,0.954834,-2.854962,-1.633588,-0.1755725,0
-0.1965332,0.3029785,1.633057,-103.1374,-28.45802,43.32061,10
0.08105469,0.02001953,0.9526367,-2.656489,-1.610687,-0.2671756,0
0.09057617,0.02246094,0.953125,-2.969466,-1.465649,-0.3129771,0
-0.2773438,0.5795898,0.953125,141.626,19.57252,-54.16031,10
0.07788086,0.02148438,0.9604492,-2.748092,-1.633588,-0.5572519,0
-0.01806641,-0.2675781,1.568359,-232.0,-65.51908,-85.84733,10
-0.019032,-0.010736,-0.323178,-4.342e-05,-0.0043077,5.85e-05,1
0.4799805,-0.08203125,0.8408203,-11.25191,4.641222,22.69466,10
0.105652,-0.06527,-0.236741,-0.01366456,0.06194916,-0.68244072,1
0.314209,0.2373047,1.48584,-189.8473,39.74809,-167.2595,10
-0.608231,-0.389119,0.537898,0.05971992,0.04087824,0.0449787,1
0.07641602,0.01953125,0.9597168,-2.763359,-1.465649,-0.2213741,0
-0.00122,0.06137,0.19886,0.07639788,0.12479,0.32075394,1
0.07446289,0.02172852,0.9655762,-2.89313,-1.549618,-0.351145,0
0.07373047,0.02270508,0.9602051,-2.824427,-1.603053,-0.351145,0
0.0793457,0.02294922,0.9685059,-2.862595,-1.679389,-0.4656488,0
-1.173828,0.2480469,0.6760254,-14.22901,-248.1832,-33.48855,10
0.1826172,0.4172363,0.4128418,175.6641,-33.70229,-81.82442,10
0.314209,0.2373047,1.48584,-189.8473,39.74809,-167.2595,10
0.08251953,0.02050781,0.9570313,-2.847328,-1.48855,-0.2366412,0
1.999939,0.03540039,1.940674,126.7786,46.36641,15.32824,10
0.08154297,0.01928711,0.9575195,-2.748092,-1.519084,-0.4045802,0
0.07861328,0.02172852,0.9592285,-2.938931,-1.748092,-0.3435115,0
0.3974609,-0.1611328,0.8820801,-13.48092,-0.7022901,-6.908397,10
-0.654541,0.5505371,1.999939,124.8931,26.01527,-54.77863,10
0.07104492,0.02368164,0.958252,-2.832061,-1.381679,-0.1832061,0
0.001464,-0.109312,0.251198,-0.07891468,-0.1465428,-0.06773728,1
-0.01611328,-0.1262207,0.4934082,-178.8473,1.923664,-67.51908,10
0.08569336,0.02148438,0.9589844,-2.885496,-1.541985,-0.2671756,0
0.042822,-0.039101,-0.59902,-0.06660264,0.00282386,-0.9812426,1
0.08666992,0.02172852,0.9580078,-2.954198,-1.671756,-0.4274809,0
0.08813477,0.01367188,0.9555664,-2.778626,-1.801527,-0.2977099,0
0.07763672,0.01416016,0.9633789,-2.931298,-1.70229,-0.389313,0
-0.5856934,0.1054688,1.310547,-248.1832,76.86259,-24.38168,10
-0.124074,0.063867,-0.362523,-0.0105131,-0.0229564,-0.21562502,1
0.1650391,0.5534668,0.8120117,116.8321,190.9084,250.1298,10
0.07617188,0.01586914,0.9633789,-2.923664,-1.70229,-0.3129771,0
0.08740234,0.01660156,0.9697266,-2.801527,-1.51145,-0.3435115,0
0.08325195,0.01928711,0.9614258,-2.908397,-1.572519,-0.4656488,0
0.1069336,-0.1032715,0.8869629,20.61832,-47.27481,127.1145,10
0.08105469,0.0222168,0.9550781,-2.862595,-1.458015,-0.3740458,0
0.07641602,0.02197266,0.9672852,-2.847328,-1.564886,-0.2900764,0
0.08032227,0.01977539,0.9621582,-2.931298,-1.549618,-0.3282443,0
0.07470703,0.02270508,0.9594727,-2.679389,-1.473282,-0.2671756,0
0.1933594,-0.08374023,0.02807617,-93.29771,96.16794,-40.54198,10
-0.083753,0.12761,-0.013176,0.07481552,-0.1543,0.12973116,1
0.07763672,0.02001953,0.9553223,-3.015267,-1.610687,-0.3816794,0
-0.969534,0.97161,0.488854,0.10331594,-0.1394,1.0476869,1
0.039223,0.09174,-0.20984,5.512e-05,0.01484,7.54e-06,1
0.4638672,0.3898926,1.58252,-245.4657,-78.32825,-228.8626,10
0.212158,0.39382,0.180804,0.00061178,0.04499,-1.05163786,1
1.049561,-0.2075195,0.5439453,188.8473,-248.1832,68.22137,10
0.08618164,0.02172852,0.9631348,-2.908397,-1.557252,-0.2748091,0
1.011475,-0.5817871,0.4294434,89.38168,-2.908397,68.29771,10
0.3439941,0.5085449,1.301025,-236.7481,-141.6336,34.12977,10
0.025193,-0.0009,-0.011163,-0.00028002,0.03108,0.00017498,1
0.08764648,0.01831055,0.9614258,-2.862595,-1.465649,-0.3358779,0
0.08520508,0.01953125,0.9643555,-2.763359,-1.48855,-0.4045802,0
0.09082031,0.01757813,0.9658203,-2.793893,-1.496183,-0.3053435,0
0.08227539,0.02392578,0.9631348,-2.900763,-1.709924,-0.4198473,0
0.07641602,0.01733398,0.9650879,-2.916031,-1.610687,-0.1832061,0
0.00061,0.0086,-0.783179,-0.0046956,-0.0499,0.10638966,1
0.08569336,0.02148438,0.9589844,-2.885496,-1.541985,-0.2671756,0
-0.4118652,0.08227539,0.6396484,83.8168,50.54198,-248.1832,10
-0.079056,-0.122061,-0.529785,0.0004394,-0.0088127,-0.0001885,1
0.07666016,0.01831055,0.9587402,-3.068702,-1.633588,-0.1908397,0
0.1098,0.017141,0.155245,0.2707419,-0.0875241,0.02170818,1
0.0769043,0.01928711,0.9504395,-2.908397,-1.51145,-0.1526718,0
0.047702,0.10651,0.199714,0.000221,0.02265,-9.776e-05,1
0.239502,0.607666,1.18335,36.32061,57.51908,-131.1603,10
-0.022692,0.016592,0.145424,-0.10370932,-0.0586035,0.03219138,1
0.07373047,0.02270508,0.9602051,-2.824427,-1.603053,-0.351145,0
0.062403,0.02934,-0.024766,-0.00067418,-0.013,0.00044122,1
0.08398438,0.02075195,0.9570313,-2.923664,-1.717557,-0.3358779,0
0.056425,-0.0134,0.063501,-0.16679468,-0.0375,-0.15875496,1
-0.565918,0.1342773,0.7202148,52.66412,53.19847,-157.3664,10
-0.2893066,0.2915039,1.572754,96.9313,250.1298,-19.45038,10
0.08227539,0.0144043,0.9689941,-2.755725,-1.625954,-0.2900764,0
0.08178711,0.02075195,0.9604492,-2.847328,-1.59542,-0.3129771,0
0.012261,-0.275415,-0.465491,-0.03362528,-0.175538,0.07726134,1
0.467041,-0.04418945,0.06982422,179.8855,49.58779,-136.0305,10
-0.4919434,0.4462891,0.5134277,-248.1832,-59.19847,-72.38168,10
0.08544922,0.01538086,0.9606934,-2.931298,-1.610687,-0.3435115,0
0.01489258,0.07250977,1.507813,-7.274809,66.42748,-99.9542,10
0.08447266,0.01855469,0.9541016,-2.824427,-1.557252,-0.2748091,0
0.07763672,0.01831055,0.9543457,-2.778626,-1.374046,-0.3969466,0
0.08178711,0.02539063,0.9743652,-2.992366,-1.946565,-0.1603053,0
-1.276611,0.7478027,1.122803,225.9771,-70.44275,-5.351145,10
0.12017,0.078385,0.1464,-0.00050726,0.00228566,0.00037804,1
-1.368652,0.2341309,1.999939,225.542,49.25954,-59.32061,10
-0.4919434,0.4462891,0.5134277,-248.1832,-59.19847,-72.38168,10
-0.01525,0.039955,0.014396,0.04063202,0.02568956,0.06534268,1
0.08007813,0.01757813,0.9602051,-2.938931,-1.389313,-0.2977099,0
0.09082031,0.01245117,0.9643555,-2.778626,-1.671756,-0.3664122,0
0.206543,0.1411133,1.630371,-16.0687,-19.65649,-2.10687,10
0.09838867,0.2084961,1.681641,-28.98473,21.14504,11.15267,10
0.08081055,0.01489258,0.9602051,-3.061069,-1.625954,-0.1068702,0
0.0871582,0.01513672,0.9663086,-2.900763,-1.770992,-0.1908397,0
-0.022021,0.0363,-0.099369,-0.00025298,0.02215,0.00015912,1
-0.5327148,0.5791016,1.999939,199.3053,97.07633,-248.1832,10
0.078125,0.01708984,0.9650879,-2.946565,-1.549618,-0.4274809,0
0.08764648,0.01953125,0.9609375,-2.778626,-1.51145,-0.2519084,0
0.006893,0.005246,0.134688,-0.00072176,0.01316302,-1.43625768,1
0.236084,0.4506836,0.7324219,197.6336,-53.16031,-169.9924,10
0.015625,0.3164063,0.7399902,-79.60305,-110.0153,229.3359,10
0.087596,0.04185,0.119072,0.02549118,0.02837,0.22981452,1
-0.037271,0.036234,-0.101565,0.18235724,0.09664512,0.48004892,1
0.006039,-0.013115,-0.246013,5.85e-05,-0.0023759,-0.00021528,1
-0.037332,0.04929,-0.089914,-0.00057616,-0.0117,0.00035516,1
0.9851074,-0.168457,0.001708984,249.7939,127.7099,250.1298,10
0.02684,0.1378,-0.341051,0.00018694,0.01872,-0.00011206,1
0.07592773,0.01611328,0.9592285,-2.679389,-1.648855,-0.2519084,0
0.963623,0.4575195,0.7971191,79.07633,46.1145,-248.1832,10
-0.013176,-0.113399,-0.05063,0.0588588,-0.0315461,0.36212566,1
-0.068747,0.1676,-0.408883,-0.00086034,-0.0037,0.0005941,1
0.564189,0.474153,0.876936,0.02665962,0.08352838,-0.09489376,1
-0.136091,0.34526,-0.179401,-0.04667286,0.00165438,0.05566808,1
0.0793457,0.02294922,0.9685059,-2.862595,-1.679389,-0.4656488,0
0.368623,0.820023,0.982039,0.01543516,-0.009132,0.4739605,1
-0.024644,-0.022509,-0.384666,-0.01276626,-0.1522862,0.15332902,1
0.2883301,0.208252,1.904297,-56.62595,-5.877862,121.3359,10
0.034709,0.1077,0.805627,0.00012948,-0.0029,-0.00011336,1
0.015625,0.3164063,0.7399902,-79.60305,-110.0153,229.3359,10
0.15982,-0.254126,-0.368745,-0.03233958,0.01380496,-0.1838174,1
0.08520508,0.01611328,0.9584961,-2.916031,-1.671756,-0.2824428,0
0.08374023,0.0222168,0.9633789,-2.916031,-1.78626,-0.2900764,0
0.001464,-0.109312,0.251198,-0.07891468,-0.1465428,-0.06773728,1
0.842776,0.72761,1.051457,-0.05032924,0.14482,0.26977236,1
0.034648,0.027816,-0.207827,0.03264482,0.17243512,-0.09488388,1
0.239502,0.607666,1.18335,36.32061,57.51908,-131.1603,10
0.08276367,0.01904297,0.9589844,-2.587786,-1.618321,-0.3740458,0
1.067627,0.5598145,1.625488,-180.8931,-7.167939,-29.27481,10
0.3251953,0.8383789,1.623291,154.0534,43.71756,-248.1832,10
0.08129883,0.01831055,0.9545898,-2.931298,-1.549618,-0.4122138,0
0.07958984,0.0246582,0.9680176,-2.89313,-1.450382,-0.4885496,0
-0.6923828,0.02441406,0.9919434,-68.51145,-80.19084,101.1221,10
0.2246094,0.2050781,1.601563,-53.70992,42.15267,1.389313,10
-0.325923,-0.337025,0.572363,0.01826526,0.0063245,0.15277886,1
0.076433,0.004941,0.090951,0.09463974,0.14445496,0.56639388,1
1.029541,0.3833008,1.061523,-82.71756,-19.33588,250.1298,10
0.001464,-0.109312,0.251198,-0.07891468,-0.1465428,-0.06773728,1
0.611525,-0.0904,0.36051,-0.19243926,0.02799,0.17635306,1
1.337891,-0.06225586,1.875977,-19.9313,-27.15267,170.6107,10
1.068359,0.08398438,1.129395,-248.1832,39.74809,-24.29771,10
0.07641602,0.01733398,0.9650879,-2.916031,-1.610687,-0.1832061,0
0.08569336,0.01660156,0.9631348,-3.0,-1.564886,-0.3206107,0
0.114253,0.03392,0.436699,0.00053196,0.01364,-0.00028964,1
-0.5678711,0.7695313,1.313477,148.2977,125.0763,127.1069,10
0.001342,-0.0204,-0.195566,-0.07209644,0.07398,-0.22388574,1
0.8569336,0.4504395,0.5734863,-236.458,-115.1298,116.0305,10
0.04636,-0.090402,-0.05612,-0.00036062,0.01363622,0.0002613,1
-0.2692871,-0.3032227,1.999939,184.5802,35.42748,-58.0229,10
0.051728,0.18129,-0.975756,0.146042,-0.2813,0.6246981,1
0.002929688,0.5605469,1.33667,-248.1832,34.66412,79.80153,10
0.08666992,0.01928711,0.9628906,-3.061069,-1.664122,-0.3053435,0
-0.06771,0.00537,0.217221,0.1603901,-0.0146,-0.15519686,1
0.07788086,0.02148438,0.9604492,-2.748092,-1.633588,-0.5572519,0
0.08544922,0.0168457,0.9562988,-3.038168,-1.59542,-0.4732824,0
0.0871582,0.01513672,0.9663086,-2.900763,-1.770992,-0.1908397,0
-0.00122,-0.0634,-0.261141,0.00042484,0.02407,-0.00024102,1
0.0378418,-0.5021973,0.8544922,11.19847,18.36641,15.38168,10
0.08325195,0.01611328,0.9643555,-2.732824,-1.664122,-0.2442748,0
0.2368164,-0.3188477,0.01074219,-134.4733,63.03053,153.2824,10
-0.2893066,0.2915039,1.572754,96.9313,250.1298,-19.45038,10
0.02867,-0.003233,0.099308,0.02255604,-0.1845493,-0.05810766,1
1.029541,0.3833008,1.061523,-82.71756,-19.33588,250.1298,10
-0.5124512,0.7861328,0.8203125,-225.7634,-132.6565,250.1298,10
0.030561,-0.034038,-0.02318,0.00015054,-0.0054577,-0.00021476,1
-0.608231,-0.389119,0.537898,0.05971992,0.04087824,0.0449787,1
0.08740234,0.02124023,0.9606934,-2.839695,-1.725191,-0.3129771,0
1.067627,0.5598145,1.625488,-180.8931,-7.167939,-29.27481,10
0.0847168,0.01977539,0.9619141,-2.793893,-1.641221,-0.4198473,0
0.3439941,0.5085449,1.301025,-236.7481,-141.6336,34.12977,10
-0.083021,-0.0722,0.311344,0.47451586,0.09083,-0.27071096,1
0.083997,-0.0329,-0.037149,-0.1338571,-0.3075,0.35523618,1
0.001464,-0.109312,0.251198,-0.07891468,-0.1465428,-0.06773728,1
0.118828,0.007625,0.293715,0.01547182,0.26495742,0.53067716,1
0.08642578,0.01586914,0.9643555,-2.847328,-1.435114,-0.3282443,0
-0.06771,0.058011,-0.684298,0.01117298,-0.002424,-0.04006236,1
0.08276367,0.02563477,0.9643555,-2.839695,-1.648855,-0.1603053,0
-0.02709961,0.3286133,0.6130371,-39.62595,-34.60305,250.1298,10
0.2980957,0.9348145,0.9528809,146.6488,-39.94656,-223.9618,10
0.0793457,0.01635742,0.9624023,-2.801527,-1.748092,-0.4198473,0
-0.069845,-0.0162,0.937692,0.07274046,-0.0251,-0.9986106,1
-0.2248535,0.0546875,0.5100098,250.1298,187.313,250.1298,10
0.09033203,0.01708984,0.953125,-2.717557,-1.572519,-0.2977099,0
0.08129883,0.02001953,0.9562988,-2.862595,-1.671756,-0.2442748,0
0.07910156,0.01513672,0.9597168,-2.80916,-1.519084,-0.4198473,0
0.233508,0.17123,0.536739,-0.00048516,-0.0069,0.0003315,1
0.9211426,0.2548828,1.999939,-86.54962,-92.00764,209.3435,10
0.006893,0.005246,0.134688,-0.00072176,0.01316302,-1.43625768,1
0.0793457,0.02148438,0.9597168,-2.961832,-1.610687,-0.4198473,0
0.08227539,0.01831055,0.9643555,-2.908397,-1.648855,-0.3664122,0
0.17263,0.074847,0.319701,0.00011882,0.02289248,-0.00012532,1
-0.2097168,-0.434082,1.999939,169.5573,12.53435,20.18321,10
0.08105469,0.02172852,0.9709473,-2.641221,-1.526718,-0.3129771,0
0.08325195,0.02148438,0.9602051,-2.862595,-1.572519,-0.2061069,0
0.07714844,0.02563477,0.9606934,-2.854962,-1.587786,-0.4198473,0
0.020984,0.012505,0.126087,0.01684436,0.05750628,0.07449468,1
0.08398438,0.01635742,0.9550781,-2.755725,-1.51145,-0.4045802,0
0.08862305,0.0144043,0.9621582,-2.839695,-1.740458,-0.2290076,0
-0.017324,-0.0072,-0.777872,0.27964066,-0.0137,-0.0004927,1
0.08398438,0.01635742,0.9550781,-2.755725,-1.51145,-0.4045802,0
0.1933594,-0.08374023,0.02807617,-93.29771,96.16794,-40.54198,10
0.0859375,0.01904297,0.9604492,-2.839695,-1.572519,-0.4503817,0
0.07568359,0.01757813,0.9577637,-2.89313,-1.473282,-0.259542,0
-0.056242,-0.0589,-0.244061,-0.00028054,-0.0024,0.00032006,1
0.7980957,0.9125977,1.416748,128.9313,-12.25954,-217.2214,10
0.08154297,0.0222168,0.954834,-2.854962,-1.633588,-0.1755725,0
-0.271511,-0.38491,0.413031,0.01388816,0.14653366,0.18623202,1
0.188429,0.179828,0.085461,-7.514e-05,-0.0087805,2.86e-05,1
0.103212,0.047641,0.156587,0.00044096,0.0105391,-0.0004069,1
-0.169092,-0.2445,0.167201,0.0046111,0.17959,0.12303122,1
0.1782227,-0.06542969,0.3127441,-119.3664,83.72519,-11.25954,10
0.063501,-0.1016,-0.463173,-0.16962114,-0.0592,0.01396044,1
0.199592,0.24961,0.132187,-0.10638134,-0.003,0.15384824,1
-0.023119,0.0586,0.018056,-0.00010166,-0.0035,0.00020644,1
0.012261,-0.275415,-0.465491,-0.03362528,-0.175538,0.07726134,1
0.8308105,0.3867188,1.362793,138.1679,89.47328,-248.1832,10
0.1020508,0.138916,-0.2143555,116.0229,-105.9847,69.25191,10
0.127856,-0.190747,-0.551562,-0.01152918,0.00476996,0.02559076,1
0.14152,-0.041907,-0.188063,-0.10806094,-0.2622305,0.52104078,1
0.02929688,0.7519531,0.9641113,-216.8321,-97.58778,250.1298,10
0.072773,-0.062952,-0.242841,0.00046072,0.00840892,-0.00036296,1
0.08544922,0.01953125,0.9584961,-2.679389,-1.580153,-0.5114504,0
0.018788,0.026962,0.119621,0.03233308,0.03151122,0.0958269,1
-0.2692871,-0.3032227,1.999939,184.5802,35.42748,-58.0229,10
-0.00122,-0.0634,-0.261141,0.00042484,0.02407,-0.00024102,1
0.08276367,0.01879883,0.9580078,-2.832061,-1.343511,-0.2824428,0
0.623291,0.6193848,1.535645,250.1298,-41.80153,-99.90076,10
0.7421875,0.4414063,1.966064,-56.98473,30.70992,-145.145,10
0.0793457,0.02099609,0.9521484,-2.885496,-1.603053,-0.4961832,0
-0.1650391,0.347168,0.8625488,-161.7405,64.86259,93.90839,10
0.5258789,0.6679688,1.735107,250.1298,-22.36641,-109.8244,10
-0.5678711,0.7695313,1.313477,148.2977,125.0763,127.1069,10
0.08178711,0.02001953,0.9692383,-2.900763,-1.656489,-0.4427481,0
-0.016958,-0.0774,-0.163724,-0.00024362,-0.0159,0.00016718,1
-0.013176,-0.113399,-0.05063,0.0588588,-0.0315461,0.36212566,1
-0.3146973,0.7045898,1.321289,158.0382,-38.78626,-176.229,10
0.08642578,0.01586914,0.9643555,-2.847328,-1.435114,-0.3282443,0
0.08374023,0.009277344,0.9589844,-3.053435,-1.519084,-0.1526718,0
-0.069296,-0.010431,0.004758,1.3e-05,0.00066742,5.85e-05,1
-0.526552,0.82716,-0.732,-0.02081118,-0.1863334,0.15623998,1
0.08862305,0.0144043,0.9621582,-2.839695,-1.740458,-0.2290076,0
-0.046543,0.04185,-0.280478,0.16060694,0.15145,-0.18263128,1
0.1323242,0.06884766,0.9731445,-5.076336,39.00763,-0.2748091,10
0.002196,0.007625,0.182024,-0.00059514,0.00327496,0.00030992,1
0.07080078,0.015625,0.9580078,-2.816794,-1.503817,-0.3740458,0
0.042212,0.044286,0.059902,-0.02410564,0.0549328,0.12310428,1
0.08520508,0.01953125,0.9643555,-2.763359,-1.48855,-0.4045802,0
-0.07788086,0.9108887,1.128906,-248.1832,21.61069,215.1908,10
0.06054688,0.2197266,-0.7504883,-124.2137,50.9542,31.9313,10
0.07641602,0.02075195,0.9611816,-2.793893,-1.366412,-0.4274809,0
0.132675,-0.116,-0.952942,-0.00734916,0.02236,-0.34398364,1
0.07470703,0.02270508,0.9594727,-2.679389,-1.473282,-0.2671756,0
0.7397461,0.4626465,1.161621,-172.1221,-75.29008,-4.267176,10
0.07958984,0.0246582,0.9680176,-2.89313,-1.450382,-0.4885496,0
0.08764648,0.02148438,0.9619141,-2.832061,-1.648855,-0.3435115,0
-0.014335,0.03215,0.006588,-0.00017446,0.01841,9.23e-05,1
0.08276367,0.01977539,0.9560547,-2.923664,-1.664122,-0.4580153,0
1.248779,0.006835938,1.100586,-41.96183,-1.839695,233.9695,10
-0.290787,0.00397,0.868823,-0.02798926,0.09011,0.22516572,1
-0.8815918,0.4482422,1.846191,118.5191,-33.71756,-229.5191,10
0.1323242,0.06884766,0.9731445,-5.076336,39.00763,-0.2748091,10
0.07543945,0.01904297,0.958252,-2.870229,-1.748092,-0.4351145,0
-0.036478,0.03739,-0.554795,0.1336478,0.10248,-0.1134796,1
-0.560791,0.1796875,1.148438,33.33588,32.16031,-10.29008,10
0.0859375,0.01904297,0.9604492,-2.839695,-1.572519,-0.4503817,0
0.07446289,0.02172852,0.9655762,-2.89313,-1.549618,-0.351145,0
-0.221918,-0.080459,-0.46299,-0.0004199,0.03395054,0.00036192,1
-0.045689,0.399184,0.651114,-0.0003887,-0.0132753,0.00013598,1
-0.046421,-0.029524,-0.088389,0.00038298,0.00294944,-0.0001664,1
0.08544922,0.02026367,0.9689941,-2.89313,-1.740458,-0.2900764,0
0.081801,0.061366,0.11102,-0.01428856,0.09783176,0.41475824,1
0.034709,0.1077,0.805627,0.00012948,-0.0029,-0.00011336,1
-0.179584,-0.446,-0.155367,-0.03650946,-0.0975,-0.14850108,1
0.6745605,-0.05981445,1.161621,-248.1832,-20.90076,103.7252,10
-0.7321777,-0.5354004,1.999939,250.1298,-27.42748,21.70992,10
0.611525,-0.0904,0.36051,-0.19243926,0.02799,0.17635306,1
-0.333975,0.177022,-0.34099,0.01936246,-0.0159929,0.00816218,1
-0.01171875,0.3356934,0.1977539,-25.22137,250.1298,0.4656488,10
-0.02562,0.0229,-0.107177,0.00056368,-0.0025,-0.00017108,1
-0.039467,-0.0874,-0.287371,-0.03597516,-0.0294,-0.36534056,1
-0.016409,0.11065,-0.630008,-0.1550289,0.00406,-0.00094952,1
0.08447266,0.01855469,0.9541016,-2.824427,-1.557252,-0.2748091,0
-0.037332,0.04929,-0.089914,-0.00057616,-0.0117,0.00035516,1
0.016775,0.014213,0.037637,-0.02406378,0.11563526,-1.13992658,1
-0.464332,-0.510936,0.415837,-0.04232722,-0.0479424,-0.09477572,1
0.611525,-0.0904,0.36051,-0.19243926,0.02799,0.17635306,1
-0.034282,-0.0192,-0.012932,-0.000169,-0.0023,0.0002132,1
1.745605,0.2717285,1.731201,145.8626,-5.580153,-119.3817,10
0.026718,-0.0056,0.119804,-0.0240838,-0.076,-0.18974384,1
0.07568359,0.0144043,0.9597168,-2.908397,-1.778626,-0.4045802,0
0.072773,-0.062952,-0.242841,0.00046072,0.00840892,-0.00036296,1
-0.0427,-0.111569,-0.007869,-0.01442168,-0.0210057,-0.17429334,1
-0.9282227,0.2192383,0.9516602,182.9008,-168.5878,108.6794,10
0.08032227,0.01367188,0.9658203,-2.89313,-1.748092,-0.3206107,0
-0.049227,-0.0044,-0.323422,-0.00015132,-0.0025,0.00024648,1
0.112789,-0.349,-0.426634,-0.20120594,0.03833,-0.03096548,1
-0.954834,0.4570313,1.050049,-50.48092,-35.05344,-248.1832,10
0.08618164,0.0246582,0.9533691,-2.961832,-1.725191,-0.3053435,0
-0.069357,0.100284,-0.666364,0.09165676,-0.0524714,0.02407834,1
0.08618164,0.01806641,0.9609375,-2.778626,-1.625954,-0.2519084,0
-0.565918,0.1342773,0.7202148,52.66412,53.19847,-157.3664,10
0.08105469,0.02392578,0.9643555,-3.0,-1.442748,-0.3129771,0
0.07080078,0.01660156,0.9599609,-2.885496,-1.618321,-0.3358779,0
0.07788086,0.01586914,0.9614258,-2.847328,-1.725191,-0.3358779,0
0.07861328,0.01489258,0.9660645,-2.717557,-1.618321,-0.3282443,0
0.2485352,0.206543,0.6218262,-143.9542,68.23664,-79.90076,10
0.08784,0.157014,-0.14823,-0.00488644,0.03320382,0.13658996,1
0.07763672,0.307373,0.5322266,-35.9542,-78.73283,250.1298,10
0.314209,0.2373047,1.48584,-189.8473,39.74809,-167.2595,10
0.314209,0.2373047,1.48584,-189.8473,39.74809,-167.2595,10
-0.085278,-0.0632,-0.144692,0.16394144,-0.0422,-0.33725328,1
0.016226,0.02568,-0.187026,-7.41e-05,0.02241,9.62e-06,1
0.081801,0.061366,0.11102,-0.01428856,0.09783176,0.41475824,1
0.0847168,0.01757813,0.9597168,-2.885496,-1.664122,-0.3206107,0
0.08374023,0.01513672,0.9599609,-2.80916,-1.648855,-0.2061069,0
-0.051606,0.01068,-0.716384,-0.05113368,-0.2874,0.46322172,1
0.566934,0.02654,0.372405,0.00027092,0.01518,-0.0001261,1
0.07568359,0.01831055,0.958252,-2.648855,-1.732824,-0.2748091,0
0.1650391,0.5534668,0.8120117,116.8321,190.9084,250.1298,10
0.07275391,0.01953125,0.9553223,-2.78626,-1.48855,-0.2061069,0
0.17263,0.074847,0.319701,0.00011882,0.02289248,-0.00012532,1
-0.8815918,0.4482422,1.846191,118.5191,-33.71756,-229.5191,10
0.039223,0.09174,-0.20984,5.512e-05,0.01484,7.54e-06,1
-0.2692871,-0.3032227,1.999939,184.5802,35.42748,-58.0229,10
0.07470703,0.02270508,0.9594727,-2.679389,-1.473282,-0.2671756,0
-0.10126,-0.200873,0.410408,-0.01926314,-0.0211866,-0.07210918,1
0.08227539,0.01904297,0.9614258,-2.854962,-1.549618,-0.1908397,0
-0.04697,-0.0132,0.061427,-5.148e-05,-0.0033,8.476e-05,1
-0.046665,0.07662,0.048861,-0.06951542,-0.0864,-0.45023576,1
0.083997,-0.0329,-0.037149,-0.1338571,-0.3075,0.35523618,1
0.927002,0.05981445,0.7026367,-146.145,-13.77863,-173.458,10
-0.3059082,0.3269043,1.703857,-96.229,-248.1832,-64.25191,10
0.028304,0.38759,0.001586,0.00050882,-0.0071,-0.00030628,1
0.07519531,0.01708984,0.9624023,-2.839695,-1.412214,-0.2671756,0
0.08227539,0.01806641,0.963623,-2.824427,-1.587786,-0.2900764,0
-0.025925,0.02342,-0.580354,-0.1755195,-0.0551,-0.00469846,1
0.07861328,0.01489258,0.9660645,-2.717557,-1.618321,-0.3282443,0
0.07910156,0.02124023,0.9707031,-2.954198,-1.740458,-0.129771,0
0.07861328,0.02270508,0.9594727,-2.977099,-1.526718,-0.3587786,0
0.07739258,0.01611328,0.9584961,-3.045802,-1.625954,-0.3129771,0
0.07885742,0.01635742,0.9584961,-2.908397,-1.519084,-0.2824428,0
0.07543945,0.0234375,0.9628906,-2.732824,-1.748092,-0.2519084,0
0.07788086,0.02124023,0.9619141,-2.908397,-1.641221,-0.3587786,0
0.08154297,0.0222168,0.954834,-2.854962,-1.633588,-0.1755725,0
-0.7233887,0.1906738,0.7416992,250.1298,15.80153,44.70992,10
0.1379395,0.1560059,0.1149902,192.3969,192.2061,-144.1756,10
0.07983398,0.01977539,0.9609375,-2.748092,-1.78626,-0.3129771,0
1.564941,0.7521973,1.999939,93.63359,58.75573,-143.5343,10
1.999939,0.4558105,1.421387,0.4580153,80.38168,-5.435114,10
0.099796,-0.027389,-0.236741,0.0249639,-0.1139154,-0.0077441,1
-0.3391113,0.2348633,0.6357422,80.42748,75.87023,-208.0229,10
0.012261,-0.275415,-0.465491,-0.03362528,-0.175538,0.07726134,1
0.2016602,-0.2236328,-1.093018,133.2519,-67.66412,-5.175572,10
0.07666016,0.01586914,0.9597168,-2.725191,-1.587786,-0.4427481,0
0.08886719,0.02246094,0.9628906,-2.641221,-1.679389,-0.3206107,0
-0.171593,-0.1281,0.038674,0.08585252,-0.1853,-0.42976284,1
-0.078629,-0.072346,0.328973,-0.03067974,-0.1178783,-0.09664902,1
0.08544922,0.02026367,0.9521484,-2.80916,-1.458015,-0.3053435,0
0.6938477,-0.3684082,1.096924,119.1069,-27.70992,-40.16794,10
0.08227539,0.02075195,0.9550781,-2.900763,-1.450382,-0.3206107,0
0.07275391,0.01953125,0.9553223,-2.78626,-1.48855,-0.2061069,0
-0.4133301,-0.1242676,0.706543,-234.3664,40.51145,-1.045802,10
-0.02734375,0.1794434,-0.276123,-147.8397,-16.43511,50.74809,10
0.08032227,0.01635742,0.9592285,-2.694656,-1.664122,-0.2900764,0
0.001586,-0.118462,0.115351,0.02638844,-0.3545612,0.01139138,1
-0.06771,0.058011,-0.684298,0.01117298,-0.002424,-0.04006236,1
-0.2805176,0.2619629,0.2912598,-79.75572,-34.92366,25.93893,10
0.07470703,0.02636719,0.9611816,-2.900763,-1.473282,-0.2366412,0
0.8308105,0.3867188,1.362793,138.1679,89.47328,-248.1832,10
0.5490723,0.5883789,0.3117676,2.519084,14.39695,-93.41222,10
0.07373047,0.02270508,0.9602051,-2.824427,-1.603053,-0.351145,0
1.098633,-0.2941895,-0.4077148,73.29771,-33.92366,72.85497,10
0.081801,0.061366,0.11102,-0.01428856,0.09783176,0.41475824,1
-0.969534,0.97161,0.488854,0.10331594,-0.1394,1.0476869,1
0.08544922,0.0168457,0.9562988,-3.038168,-1.59542,-0.4732824,0
0.08178711,0.02001953,0.9692383,-2.900763,-1.656489,-0.4427481,0
0.294508,0.00702,0.406992,-0.00067626,0.01764,0.00043862,1
0.880127,0.310791,0.7207031,250.1298,-147.6718,-107.6641,10
0.097844,0.083997,0.586454,2.782e-05,-0.0009649,0.00012376,1
0.08569336,0.02148438,0.9589844,-2.885496,-1.541985,-0.2671756,0
0.07421875,0.02075195,0.9633789,-2.847328,-1.748092,-0.2519084,0
-0.056242,-0.0589,-0.244061,-0.00028054,-0.0024,0.00032006,1
0.07421875,0.01733398,0.9638672,-2.862595,-1.526718,-0.351145,0
0.107848,0.15207,0.367525,-0.0574665,-0.0981,-0.05605314,1
0.08398438,0.02197266,0.9609375,-2.923664,-1.534351,-0.3206107,0
0.8601074,0.3007813,0.6904297,-41.25191,-54.34351,-8.267176,10
0.049959,0.013481,0.307806,-0.04003636,-0.0681928,0.13136604,1
0.246582,-0.2348633,0.6699219,-248.1832,-39.63359,-50.72519,10
0.2700195,0.2119141,0.03759766,-222.8626,17.82443,14.44275,10
0.07104492,0.02368164,0.958252,-2.832061,-1.381679,-0.1832061,0
-0.169092,-0.2445,0.167201,0.0046111,0.17959,0.12303122,1
0.07788086,0.02124023,0.9619141,-2.908397,-1.641221,-0.3587786,0
0.034709,0.1077,0.805627,0.00012948,-0.0029,-0.00011336,1
0.2629395,0.2075195,0.1098633,133.5573,31.86259,250.1298,10
0.08447266,0.01855469,0.9541016,-2.824427,-1.557252,-0.2748091,0
-0.6826172,-0.2653809,1.999939,143.0611,63.44275,-42.23664,10
0.3513184,-0.01342773,0.6345215,-63.63359,-248.1832,1.862595,10
0.07763672,0.01611328,0.9609375,-2.854962,-1.648855,-0.259542,0
0.9213867,0.5861816,1.999939,152.5649,-7.030534,148.145,10
-0.769043,0.673584,0.7124023,-202.6718,-66.45802,250.1298,10
0.08081055,0.02050781,0.9562988,-2.824427,-1.580153,-0.2061069,0
-0.019886,0.13194,0.06649,0.01292434,-0.072,-0.01716884,1
0.056425,-0.0134,0.063501,-0.16679468,-0.0375,-0.15875496,1
0.199592,0.24961,0.132187,-0.10638134,-0.003,0.15384824,1
0.0793457,0.02319336,0.9641113,-2.938931,-1.496183,-0.4122138,0
-0.5270996,0.1103516,0.7705078,-94.03817,-104.7939,153.855,10
1.217285,0.1418457,1.095215,6.183206,-22.06107,-81.39695,10
-0.171593,-0.1281,0.038674,0.08585252,-0.1853,-0.42976284,1
-0.001586,0.05783,0.620187,0.19189638,0.08911,-0.15145598,1
1.999939,0.03540039,1.940674,126.7786,46.36641,15.32824,10
-0.034282,-0.0192,-0.012932,-0.000169,-0.0023,0.0002132,1
0.0769043,0.0222168,0.9626465,-2.900763,-1.648855,-0.3129771,0
0.4833984,0.2839355,1.252197,-70.40458,89.93893,12.75572,10
-0.06344,-0.005063,-0.181353,0.07299942,0.2916966,-0.01855568,1
0.08398438,0.02197266,0.9609375,-2.923664,-1.534351,-0.3206107,0
0.927002,0.05981445,0.7026367,-146.145,-13.77863,-173.458,10
-0.108946,0.03989,0.087169,0.05571696,0.05427,-0.0401726,1
-0.085827,0.05612,0.008662,0.12876864,-0.0156,0.45279598,1
0.023058,-0.0036,0.073322,0.06852898,-0.0541,0.40234532,1
-0.1757813,0.237793,0.6018066,-86.00764,117.0153,-211.2061,10
-0.2692871,-0.3032227,1.999939,184.5802,35.42748,-58.0229,10
0.07543945,0.01806641,0.9633789,-2.900763,-1.549618,-0.259542,0
-0.089792,-0.2607,0.319762,0.31288348,0.31535,0.18121454,1
-0.01525,0.039955,0.014396,0.04063202,0.02568956,0.06534268,1
0.566934,0.02654,0.372405,0.00027092,0.01518,-0.0001261,1
-0.2893066,0.2915039,1.572754,96.9313,250.1298,-19.45038,10
0.009516,0.053802,-0.926224,-0.05749952,0.10546172,-0.43877574,1
0.1464844,0.142334,-0.5444336,-59.58779,26.18321,36.35878,10
1.403076,0.3137207,0.826416,250.1298,101.7939,-11.50382,10
-0.9909668,0.1682129,1.999939,250.1298,25.9542,-37.70229,10
0.08105469,0.01293945,0.9614258,-2.877863,-1.641221,-0.2290076,0
-0.1782227,0.3864746,1.231201,-159.7099,15.09924,-74.03817,10
0.259555,0.06741,-0.243329,-0.03047954,-0.0681,-0.05762016,1
0.3513184,-0.01342773,0.6345215,-63.63359,-248.1832,1.862595,10
0.3706055,-0.4621582,-0.5708008,250.1298,-22.37405,75.0687,10
-0.027084,-0.0458,-0.684664,0.1572805,0.06455,0.01089062,1
-0.07275391,0.06958008,1.060059,-248.1832,-141.1069,-19.9771,10
0.07763672,0.02001953,0.9575195,-2.572519,-1.671756,-0.2748091,0
0.001586,-0.118462,0.115351,0.02638844,-0.3545612,0.01139138,1
0.8601074,0.3007813,0.6904297,-41.25191,-54.34351,-8.267176,10
0.4462891,-0.1359863,1.226807,-248.1832,-248.1832,-248.1832,10
0.07788086,0.01586914,0.9614258,-2.847328,-1.725191,-0.3358779,0
-0.164822,-0.0563,0.055388,-0.188838,-0.0075,0.01750632,1
0.4196777,0.4624023,1.335205,-212.5954,85.87786,176.2061,10
0.035746,-0.093696,0.34343,-0.00017394,-0.0031359,-4.784e-05,1
-0.027816,-0.0404,-0.473116,-6.084e-05,-0.0019,6.864e-05,1
-0.7736816,0.3876953,1.488281,247.8321,-10.64122,-195.1527,10
0.08398438,0.01928711,0.9699707,-2.969466,-1.740458,-0.2824428,0
0.1154785,-0.1193848,0.90625,38.83969,12.01527,14.32824,10
0.08666992,0.01928711,0.9628906,-3.061069,-1.664122,-0.3053435,0
0.08422852,0.02001953,0.9602051,-2.931298,-1.549618,-0.3206107,0
0.07739258,0.02124023,0.954834,-2.854962,-1.694656,-0.3969466,0
-0.023912,-0.183366,0.05795,0.01178034,0.00619138,-1.01702406,1
0.06420898,-0.1958008,-0.09082031,250.1298,-124.771,-52.51908,10
-0.2890625,0.1564941,0.3210449,164.1221,-118.1756,250.1298,10
0.063196,0.07985,0.147498,-0.197028,0.14168,1.62338878,1
-0.5327148,0.5791016,1.999939,199.3053,97.07633,-248.1832,10
0.03172,0.030805,0.097905,-0.06066736,0.18210426,-0.05342558,1
0.9157715,-0.1469727,0.9477539,139.4504,21.12214,-12.38168,10
-0.5151367,0.6716309,0.6801758,-248.1832,-15.34351,-7.580153,10
0.08740234,0.01806641,0.9643555,-2.916031,-1.534351,-0.259542,0
0.6745605,-0.05981445,1.161621,-248.1832,-20.90076,103.7252,10
0.08349609,0.01879883,0.9631348,-2.801527,-1.641221,-0.3053435,0
-0.017751,0.01208,-0.682041,0.15753634,-0.033,-0.19295302,1
-0.041419,0.035929,-0.165676,0.00044148,4.42e-05,-0.00020722,1
1.745605,0.2717285,1.731201,145.8626,-5.580153,-119.3817,10
0.5490723,0.5883789,0.3117676,2.519084,14.39695,-93.41222,10
1.171387,0.3745117,1.239258,-159.0458,-70.01527,-51.38168,10
0.105652,-0.06527,-0.236741,-0.01366456,0.06194916,-0.68244072,1
0.07885742,0.0222168,0.9606934,-2.931298,-1.244275,-0.3129771,0
-0.073078,0.0284,0.411811,-9.932e-05,-0.0023,-3.744e-05,1
0.07470703,0.01855469,0.9628906,-2.862595,-1.549618,-0.1984733,0
0.6655273,1.282715,1.006348,-137.1679,48.07634,-205.3359,10
0.08081055,0.01660156,0.9628906,-2.778626,-1.564886,-0.1603053,0
-0.8151855,0.2124023,0.392334,-18.83969,67.19847,-169.8855,10
0.5891113,-0.1394043,1.217285,-248.1832,17.56489,106.9237,10
0.08081055,0.01977539,0.9592285,-2.969466,-1.473282,-0.2748091,0
-0.331543,-0.2087402,0.1835938,-26.35114,108.4198,-162.3053,10
0.097844,0.083997,0.586454,2.782e-05,-0.0009649,0.00012376,1
0.025193,-0.0009,-0.011163,-0.00028002,0.03108,0.00017498,1
0.5222168,0.4980469,1.306885,-10.19847,90.94656,-244.3359,10
0.07202148,0.494873,1.119873,-248.1832,-30.43511,-35.25954,10
0.2851563,0.1889648,1.065918,8.206107,39.50382,250.1298,10
-0.2387695,0.4484863,1.477295,-248.1832,-5.458015,133.0534,10
0.2114258,0.3815918,1.534912,-193.5267,26.84733,-97.21374,10
-0.5673828,-0.1860352,-0.1884766,-25.80153,3.251908,-15.58779,10
-0.041419,0.035929,-0.165676,0.00044148,4.42e-05,-0.00020722,1
-0.171875,0.3330078,0.8254395,221.3512,209.3435,-248.1832,10
0.08056641,0.01928711,0.9638672,-3.045802,-1.580153,-0.4198473,0
0.1650391,0.5534668,0.8120117,116.8321,190.9084,250.1298,10
0.08569336,0.02172852,0.9641113,-2.732824,-1.503817,-0.3435115,0
0.07470703,0.02636719,0.9611816,-2.900763,-1.473282,-0.2366412,0
1.101807,0.7045898,1.253906,-57.31298,-92.61832,174.1527,10
-0.01977539,-0.1154785,1.100586,11.0458,-153.3206,-35.65649,10
-0.007747,0.0537,0.246806,0.00024856,-0.0031,-0.00013494,1
0.0859375,0.01196289,0.9599609,-2.847328,-1.526718,-0.3816794,0
0.030561,-0.034038,-0.02318,0.00015054,-0.0054577,-0.00021476,1
0.07714844,0.02197266,0.9560547,-3.038168,-1.687023,-0.2366412,0
0.2629395,0.2075195,0.1098633,133.5573,31.86259,250.1298,10
0.0847168,0.01855469,0.9541016,-2.854962,-1.70229,-0.1984733,0
0.08642578,0.01489258,0.958252,-2.862595,-1.625954,-0.5343512,0
-0.2255859,0.5720215,1.237549,71.58015,-120.855,128.5802,10
1.621094,-0.04418945,1.999939,-45.74809,-38.12214,173.5343,10
0.07763672,0.02001953,0.9575195,-2.572519,-1.671756,-0.2748091,0
0.08422852,0.01855469,0.9597168,-3.068702,-1.740458,-0.0610687,0
-0.112972,-0.486109,-1.040355,0.08854924,0.12480442,-0.65535522,1
0.07543945,0.0234375,0.9628906,-2.732824,-1.748092,-0.2519084,0
0.08105469,0.02001953,0.9526367,-2.656489,-1.610687,-0.2671756,0
0.08374023,0.01953125,0.9494629,-2.778626,-1.564886,-0.3664122,0
-0.2387695,0.4484863,1.477295,-248.1832,-5.458015,133.0534,10
0.1188965,0.4262695,0.0004882813,-248.1832,-180.1374,-30.06107,10
0.087596,0.04185,0.119072,0.02549118,0.02837,0.22981452,1
1.337891,-0.06225586,1.875977,-19.9313,-27.15267,170.6107,10
0.08784,0.157014,-0.14823,-0.00488644,0.03320382,0.13658996,1
0.08154297,0.01928711,0.967041,-2.839695,-1.51145,-0.4351145,0
-0.2868652,0.4162598,1.999939,-40.56488,15.54198,-39.9313,10
0.246582,-0.2348633,0.6699219,-248.1832,-39.63359,-50.72519,10
-0.3996582,0.06689453,0.6159668,-248.1832,-248.1832,81.771,10
0.3886719,0.3664551,-0.6020508,-140.374,52.25954,32.0687,10
1.248779,0.006835938,1.100586,-41.96183,-1.839695,233.9695,10
0.07861328,0.02856445,0.9667969,-2.832061,-1.496183,-0.2366412,0
0.06420898,-0.1958008,-0.09082031,250.1298,-124.771,-52.51908,10
0.08154297,0.02368164,0.9667969,-2.862595,-1.648855,-0.1755725,0
-0.5449219,0.9587402,1.079346,-248.1832,-235.1679,-15.33588,10
0.1813965,0.5529785,1.819336,-67.87786,82.73283,78.13741,10
0.08569336,0.02075195,0.9606934,-2.900763,-1.48855,-0.09923664,0
-0.432373,-0.09228516,0.2451172,-87.771,-1.900763,-123.1603,10
1.521973,0.8320313,1.882324,84.32825,-48.0229,167.4275,10
0.001586,-0.118462,0.115351,0.02638844,-0.3545612,0.01139138,1
0.08007813,0.015625,0.9555664,-2.839695,-1.625954,-0.1908397,0
0.202032,0.112911,0.437065,0.00011154,-0.0126823,-0.00013806,1
-0.056791,0.03495,0.25193,-0.00057356,0.05215,0.0003406,1
0.072773,-0.062952,-0.242841,0.00046072,0.00840892,-0.00036296,1
0.047519,0.0054,0.225883,-0.000598,-0.0044,0.00035204,1
0.7817383,-0.5737305,-0.3884277,198.6947,113.7405,112.7405,10
0.260498,0.4626465,1.164307,-248.1832,-107.0076,55.96183,10
0.076494,-0.0244,0.471408,0.00014144,-0.0116,-8.164e-05,1
0.00183,0.00641,-0.760792,0.03577782,-0.0616,0.01194518,1
-0.5351563,0.6464844,1.195313,250.1298,-31.96947,-80.0229,10
0.3527832,-0.9484863,-0.5522461,188.7634,-6.832061,-131.145,10
0.07910156,0.01855469,0.9682617,-3.10687,-1.717557,-0.3206107,0
0.07470703,0.02270508,0.9594727,-2.679389,-1.473282,-0.2671756,0
0.08251953,0.02075195,0.9592285,-2.763359,-1.473282,-0.389313,0
0.03172,0.030805,0.097905,-0.06066736,0.18210426,-0.05342558,1
0.08374023,0.009277344,0.9589844,-3.053435,-1.519084,-0.1526718,0
-0.4133301,-0.1242676,0.706543,-234.3664,40.51145,-1.045802,10
0.715332,0.08959961,0.2368164,-248.1832,-15.54962,96.54198,10
0.0847168,0.01196289,0.9711914,-2.748092,-1.389313,-0.2977099,0
0.08618164,0.02172852,0.9631348,-2.908397,-1.557252,-0.2748091,0
0.08007813,0.0168457,0.9606934,-2.755725,-1.519084,-0.1526718,0
0.009516,0.053802,-0.926224,-0.05749952,0.10546172,-0.43877574,1
-0.117669,-0.002806,0.364414,-0.02589106,-0.1547985,-0.14309204,1
0.07104492,0.02368164,0.958252,-2.832061,-1.381679,-0.1832061,0
-0.005371094,0.4155273,1.721436,57.42748,-44.37405,-92.31298,10
0.07910156,0.01635742,0.9697266,-2.664122,-1.541985,-0.129771,10
0.6333008,0.5534668,1.153564,-216.4198,-117.6031,250.1298,10
0.3444824,0.5244141,1.328369,-144.1832,-59.68702,250.1298,10
0.07861328,0.01977539,0.9694824,-2.763359,-1.664122,-0.2824428,0
0.05673,-0.035,0.433588,-0.00056862,0.00819,0.00037024,1
0.023058,-0.0036,0.073322,0.06852898,-0.0541,0.40234532,1
-0.4133301,-0.1242676,0.706543,-234.3664,40.51145,-1.045802,10
0.047519,0.0054,0.225883,-0.000598,-0.0044,0.00035204,1
-0.232959,-0.0245,-0.299693,-0.04406922,-0.1772,-0.24380304,1
-0.117364,0.03599,-0.087535,-0.00054626,0.01251,0.00036426,1
0.199592,0.24961,0.132187,-0.10638134,-0.003,0.15384824,1
0.07861328,0.02246094,0.9584961,-2.847328,-1.59542,-0.2671756,0
0.08813477,0.01367188,0.9555664,-2.778626,-1.801527,-0.2977099,0
0.03515625,-0.2158203,-0.128418,138.3053,34.48092,-67.1832,10
0.006893,0.005246,0.134688,-0.00072176,0.01316302,-1.43625768,1
0.049959,0.013481,0.307806,-0.04003636,-0.0681928,0.13136604,1
-0.2058105,0.1169434,0.02416992,-220.7176,29.99237,54.8168,10
0.290848,-0.41,0.439383,-0.13482378,-0.1107,-0.16161288,1
0.2485352,0.206543,0.6218262,-143.9542,68.23664,-79.90076,10
0.07910156,0.02124023,0.9707031,-2.954198,-1.740458,-0.129771,0
0.7580566,-0.06469727,1.519775,197.9771,106.4809,-246.2366,10
0.08569336,0.02294922,0.9589844,-3.122137,-1.458015,-0.3053435,0
0.08666992,0.01708984,0.9631348,-2.664122,-1.541985,-0.2977099,0
1.999939,0.4558105,1.421387,0.4580153,80.38168,-5.435114,10
0.0847168,0.01196289,0.9711914,-2.748092,-1.389313,-0.2977099,0
0.104432,0.005002,0.059414,-0.03055702,-0.1724975,0.10731006,1
1.225342,0.04467773,-1.454834,246.9389,250.1298,246.374,10
-0.1130371,-0.3850098,0.9882813,34.48092,-14.80153,-246.771,10
0.4833984,0.2839355,1.252197,-70.40458,89.93893,12.75572,10
-0.108946,0.03989,0.087169,0.05571696,0.05427,-0.0401726,1
0.099674,-0.109373,-0.697169,-0.02119832,-0.4445259,-0.11353576,1
0.08032227,0.0246582,0.967041,-2.916031,-1.458015,-0.3358779,0
0.08422852,0.02001953,0.9602051,-2.931298,-1.549618,-0.3206107,0
1.081787,-0.1245117,1.999939,194.2214,22.9542,-5.862596,10
0.08544922,0.01953125,0.9584961,-2.679389,-1.580153,-0.5114504,0
0.3439941,0.5085449,1.301025,-236.7481,-141.6336,34.12977,10
-0.022509,-0.057,-0.188856,0.03679858,-0.1806,0.0632736,1
-0.056242,-0.0589,-0.244061,-0.00028054,-0.0024,0.00032006,1
0.08325195,0.02148438,0.9602051,-2.862595,-1.572519,-0.2061069,0
0.08374023,0.01879883,0.972168,-2.778626,-1.541985,-0.1603053,0
-0.261324,0.158966,-0.089792,5.538e-05,-0.0058185,-4.706e-05,1
0.4638672,0.3898926,1.58252,-245.4657,-78.32825,-228.8626,10
0.07446289,0.02172852,0.9655762,-2.89313,-1.549618,-0.351145,0
1.081787,-0.1245117,1.999939,194.2214,22.9542,-5.862596,10
-0.001281,0.015,-0.100162,8.008e-05,-0.0029,-2.626e-05,1
0.08105469,0.01928711,0.9638672,-2.900763,-1.625954,-0.1755725,0
-0.117364,0.03599,-0.087535,-0.00054626,0.01251,0.00036426,1
0.210389,0.07216,-0.204777,0.0215748,-0.0162,0.22266868,1
-0.025925,0.02342,-0.580354,-0.1755195,-0.0551,-0.00469846,1
-0.002441406,0.473877,1.757813,-219.687,9.045801,191.8092,10
0.07202148,0.02001953,0.9572754,-2.839695,-1.541985,-0.1526718,0
0.07836914,0.02124023,0.967041,-2.664122,-1.664122,-0.3969466,0
0.075518,0.04953,0.048617,0.00049556,0.0174,-0.00029016,1
0.08642578,0.01586914,0.9643555,-2.847328,-1.435114,-0.3282443,0
-0.5678711,0.7695313,1.313477,148.2977,125.0763,127.1069,10
0.06738281,0.01489258,0.9755859,-2.854962,-1.603053,-0.1984733,10
0.07641602,0.01464844,0.9538574,-2.916031,-1.687023,-0.1603053,0
0.08398438,0.02075195,0.9570313,-2.923664,-1.717557,-0.3358779,0
-0.051606,0.01068,-0.716384,-0.05113368,-0.2874,0.46322172,1
0.103395,0.070638,-0.056059,0.06709482,0.10946468,0.19897956,1
0.6467285,-0.1196289,-0.2810059,-142.2748,-80.41222,209.3359,10
0.07885742,0.02099609,0.9628906,-2.89313,-1.458015,-0.2519084,0
0.07885742,0.0168457,0.9597168,-2.763359,-1.458015,-0.1221374,0
0.07373047,0.02270508,0.9602051,-2.824427,-1.603053,-0.351145,0
-0.1782227,0.3864746,1.231201,-159.7099,15.09924,-74.03817,10
-0.1130371,-0.3850098,0.9882813,34.48092,-14.80153,-246.771,10
0.08569336,0.01513672,0.9584961,-2.801527,-1.625954,-0.1450382,0
0.195444,-0.019764,0.109434,-0.00391326,0.02873234,-0.0820105,1
0.0378418,-0.5021973,0.8544922,11.19847,18.36641,15.38168,10
0.6745605,-0.05981445,1.161621,-248.1832,-20.90076,103.7252,10
1.068359,0.08398438,1.129395,-248.1832,39.74809,-24.29771,10
0.1010742,-0.2409668,-0.09277344,-248.1832,110.2901,83.96947,10
0.583252,-0.05419922,-0.4343262,154.687,15.98473,-88.84733,10
0.034648,0.027816,-0.207827,0.03264482,0.17243512,-0.09488388,1
-0.008601,0.02373,0.17568,-0.05077878,0.00351,-0.3773393,1
0.11956,0.07631,0.478728,-0.00429494,0.01029,0.13313898,1
0.0871582,0.01733398,0.9667969,-2.816794,-1.480916,-0.4503817,0
0.009516,0.053802,-0.926224,-0.05749952,0.10546172,-0.43877574,1
0.08642578,0.01489258,0.958252,-2.862595,-1.625954,-0.5343512,0
0.0793457,0.02563477,0.9592285,-2.80916,-1.694656,-0.3816794,0
0.07446289,0.02441406,0.9560547,-2.763359,-1.526718,-0.3129771,0
0.07592773,0.01342773,0.9482422,-2.938931,-1.519084,-0.3740458,0
-0.079117,-0.0045,0.309819,-0.0488852,0.05332,-0.21622406,1
0.08154297,0.01904297,0.9626465,-2.824427,-1.572519,-0.2671756,0
0.07324219,0.02294922,0.9621582,-2.618321,-1.557252,-0.3206107,0
0.062525,-0.0648,-0.551989,8.502e-05,-0.0021,0.00011726,1
0.4416504,0.05053711,0.3601074,166.8931,103.6183,-113.7863,10
0.09472656,0.6730957,1.846924,250.1298,-74.51908,-16.18321,10
1.881348,-0.1269531,-1.004883,21.15267,-206.7405,-120.8473,10
0.05307,-0.143228,0.25132,-0.5538442,-0.2586436,1.20891992,1
-0.969534,0.97161,0.488854,0.10331594,-0.1394,1.0476869,1
0.2700195,0.2119141,0.03759766,-222.8626,17.82443,14.44275,10
0.09033203,0.0144043,0.9602051,-3.244275,-1.671756,-0.2977099,0
0.09301758,0.5219727,1.980957,57.9084,-19.46565,50.39695,10
-0.046543,0.04185,-0.280478,0.16060694,0.15145,-0.18263128,1
0.3974609,-0.1611328,0.8820801,-13.48092,-0.7022901,-6.908397,10
-1.173828,0.2480469,0.6760254,-14.22901,-248.1832,-33.48855,10
-0.083753,0.12761,-0.013176,0.07481552,-0.1543,0.12973116,1
0.08032227,0.0234375,0.9606934,-2.80916,-1.503817,-0.3358779,0
1.065186,0.1428223,0.7954102,250.1298,-9.473283,-0.1832061,10
1.173828,-0.2524414,-1.231689,180.1908,139.2366,55.31298,10
-0.02709961,0.3286133,0.6130371,-39.62595,-34.60305,250.1298,10
-0.4631348,0.411377,1.813721,153.2595,22.27481,-244.1374,10
1.435059,0.5856934,1.090576,-1.725191,85.64122,-248.1832,10
0.07446289,0.02441406,0.9560547,-2.763359,-1.526718,-0.3129771,0
0.368623,0.820023,0.982039,0.01543516,-0.009132,0.4739605,1
0.8068848,-0.01147461,1.227051,-248.1832,-209.2748,-134.458,10
-0.061793,-0.063623,0.220271,-0.03606876,-0.1683776,-0.15927652,1
-0.070577,-0.0146,-0.147559,-4.212e-05,-0.0022,3.302e-05,1
0.08544922,0.01977539,0.9597168,-2.931298,-1.435114,-0.5419847,0
-0.006039,-0.013725,0.195505,-0.15763566,1.03246572,0.77928734,1
0.07421875,0.02075195,0.9633789,-2.847328,-1.748092,-0.2519084,0
-0.050691,-0.0466,-0.332511,0.00048828,-0.0034,-0.00030264,1
0.08740234,0.01806641,0.9643555,-2.916031,-1.534351,-0.259542,0
-0.071797,-0.0092,-0.612562,0.00045942,-0.0016,-0.00024908,1
0.6621094,0.6960449,1.618408,86.73283,-21.49618,202.4886,10
0.078125,0.02124023,0.9577637,-2.870229,-1.450382,-0.4427481,0
-0.969534,0.97161,0.488854,0.10331594,-0.1394,1.0476869,1
0.08056641,0.01928711,0.9638672,-3.045802,-1.580153,-0.4198473,0
-0.017324,-0.0072,-0.777872,0.27964066,-0.0137,-0.0004927,1
0.088084,0.409249,0.853329,-0.0003926,-0.0010535,0.00018122,1
0.025376,0.0807,-0.89487,-0.02049268,0.11316,0.86167614,1
1.881348,-0.1269531,-1.004883,21.15267,-206.7405,-120.8473,10
0.1816406,0.40625,0.4555664,62.9084,22.08397,-146.7634,10
-0.022021,0.0363,-0.099369,-0.00025298,0.02215,0.00015912,1
0.0793457,0.02294922,0.9685059,-2.862595,-1.679389,-0.4656488,0
0.4326172,-0.2529297,0.9145508,103.5954,-57.93893,114.5115,10
0.233508,0.17123,0.536739,-0.00048516,-0.0069,0.0003315,1
0.08398438,0.02197266,0.9609375,-2.923664,-1.534351,-0.3206107,0
0.08618164,0.02319336,0.9560547,-2.824427,-1.534351,-0.3587786,0
0.030561,-0.034038,-0.02318,0.00015054,-0.0054577,-0.00021476,1
-0.6662598,0.5908203,1.377197,-63.24427,109.7634,-94.48855,10
-0.048922,0.063745,-0.629337,0.04199624,0.08587696,0.07166328,1
0.07446289,0.02441406,0.9560547,-2.763359,-1.526718,-0.3129771,0
1.745605,0.2717285,1.731201,145.8626,-5.580153,-119.3817,10
-0.171593,-0.1281,0.038674,0.08585252,-0.1853,-0.42976284,1
-0.025437,-0.160247,0.38186,0.02511808,0.00747682,-1.04727324,1
0.0793457,0.0246582,0.9577637,-2.671756,-1.740458,-0.4045802,0
0.07788086,0.02246094,0.9626465,-2.793893,-1.534351,-0.6030535,0
0.015625,0.3164063,0.7399902,-79.60305,-110.0153,229.3359,10
-1.595215,0.2502441,0.3876953,13.41985,109.3817,-189.229,10
0.013115,0.0313,-0.025254,0.00014742,-0.0027,-4.108e-05,1
0.5510254,0.2399902,1.083252,-248.1832,-63.96183,24.66412,10
-0.001281,0.015,-0.100162,8.008e-05,-0.0029,-2.626e-05,1
0.08740234,0.01464844,0.9606934,-2.80916,-1.557252,-0.3053435,0
-1.0979,0.3205566,1.237061,3.900763,6.030534,149.4809,10
0.3898926,0.3857422,0.7314453,-69.10687,-121.8473,250.1298,10
0.368623,0.820023,0.982039,0.01543516,-0.009132,0.4739605,1
-0.04575,0.1255,0.426939,0.00014846,-0.0037,-0.00020592,1
0.4833984,0.2839355,1.252197,-70.40458,89.93893,12.75572,10
0.0847168,0.01977539,0.9619141,-2.793893,-1.641221,-0.4198473,0
-0.074359,0.01403,0.198616,-0.0335647,-0.1874,-0.00871416,1
-0.024827,-0.0351,-0.737795,0.03509974,0.05017,-0.36352212,1
0.260498,0.4626465,1.164307,-248.1832,-107.0076,55.96183,10
0.1098,0.017141,0.155245,0.2707419,-0.0875241,0.02170818,1
1.109131,0.9233398,1.999939,101.0458,-45.68702,-92.64886,10
0.07910156,0.02832031,0.9675293,-2.900763,-1.480916,-0.480916,0
0.07861328,0.02270508,0.9594727,-2.977099,-1.526718,-0.3587786,0
-0.021106,-0.0179,-0.764391,0.16346746,-0.0637,-0.19607796,1
0.03881836,0.5522461,1.063721,123.626,55.45038,-248.1832,10
-0.735599,-0.319274,1.040111,-0.04041674,-0.0595798,-0.59865234,1
-0.105164,0.00567,-0.790804,0.0255268,-0.5409,1.1256076,1
-0.526552,0.82716,-0.732,-0.02081118,-0.1863334,0.15623998,1
0.003111,0.01409,-0.719068,0.02492854,-0.0187,-0.68220958,1
0.09106445,0.02416992,0.9650879,-2.709924,-1.709924,-0.2671756,0
0.07885742,0.01635742,0.9584961,-2.908397,-1.519084,-0.2824428,0
0.08178711,0.02270508,0.9572754,-3.091603,-1.534351,-0.4045802,0
0.127856,-0.190747,-0.551562,-0.01152918,0.00476996,0.02559076,1
-0.013176,-0.113399,-0.05063,0.0588588,-0.0315461,0.36212566,1
0.05551,-0.0657,0.005124,-0.0447395,-0.1442,-0.10194184,1
0.625,1.088623,0.9863281,-63.17557,-1.21374,-190.4962,10
0.06933594,0.01879883,0.9602051,-2.900763,-1.664122,-0.3053435,0
0.07861328,0.02246094,0.9555664,-3.038168,-1.458015,-0.3740458,0
-0.2893066,0.2915039,1.572754,96.9313,250.1298,-19.45038,10
0.05551,-0.0657,0.005124,-0.0447395,-0.1442,-0.10194184,1
0.08203125,0.01074219,0.9614258,-2.900763,-1.664122,-0.389313,0
-0.001891,0.0928,0.209352,0.00055614,-0.0032,-0.00038038,1
-0.09179688,0.255127,0.2792969,250.1298,-102.229,247.7023,10
0.275598,-0.271206,-0.240218,0.04491916,-0.2238881,-0.07232992,1
0.07470703,0.02490234,0.9750977,-2.793893,-1.625954,-0.2366412,0
0.233508,0.17123,0.536739,-0.00048516,-0.0069,0.0003315,1
0.07592773,0.01660156,0.9697266,-2.770992,-1.618321,-0.4351145,0
0.07397461,0.02270508,0.9560547,-2.687023,-1.603053,-0.4045802,0
-0.2790527,0.5292969,1.034424,103.8168,11.44275,-230.9695,10
-0.022509,-0.057,-0.188856,0.03679858,-0.1806,0.0632736,1
0.1154785,-0.1193848,0.90625,38.83969,12.01527,14.32824,10
0.06054688,0.2197266,-0.7504883,-124.2137,50.9542,31.9313,10
-0.068869,-0.1907,-0.184464,0.03687372,0.02741,0.17874922,1
-0.124074,0.063867,-0.362523,-0.0105131,-0.0229564,-0.21562502,1
0.04541016,-0.3132324,-0.1469727,187.4504,-63.12977,44.20611,10
0.08569336,0.02294922,0.9589844,-3.122137,-1.458015,-0.3053435,0
0.066429,0.073627,-0.320372,-0.05568784,0.0491478,0.00515736,1
0.08544922,0.02026367,0.9521484,-2.80916,-1.458015,-0.3053435,0
-0.016958,-0.0774,-0.163724,-0.00024362,-0.0159,0.00016718,1
0.07446289,0.02075195,0.9631348,-2.801527,-1.610687,-0.3129771,0
0.08862305,0.01831055,0.9606934,-2.664122,-1.442748,-0.3816794,0
-1.32431,-0.450363,-0.623969,-0.05344872,-0.0242341,-0.02418962,1
0.08544922,0.01538086,0.9606934,-2.931298,-1.610687,-0.3435115,0
0.7580566,-0.06469727,1.519775,197.9771,106.4809,-246.2366,10
-0.7736816,0.3876953,1.488281,247.8321,-10.64122,-195.1527,10
0.3032227,0.3476563,1.206299,-173.1908,-148.2137,166.4275,10
0.500017,0.11206,0.013298,-0.10818574,0.00717,0.13930436,1
-0.4118652,0.08227539,0.6396484,83.8168,50.54198,-248.1832,10
0.07104492,0.02124023,0.9672852,-2.80916,-1.618321,-0.2442748,0
0.035746,-0.093696,0.34343,-0.00017394,-0.0031359,-4.784e-05,1
0.005124,0.068381,-0.67039,0.0394199,-0.0878623,-0.02576392,1
0.07836914,0.02124023,0.967041,-2.664122,-1.664122,-0.3969466,0
0.15982,-0.254126,-0.368745,-0.03233958,0.01380496,-0.1838174,1
0.08276367,0.01904297,0.9589844,-2.587786,-1.618321,-0.3740458,0
0.0847168,0.01855469,0.9541016,-2.854962,-1.70229,-0.1984733,0
0.3251953,0.8383789,1.623291,154.0534,43.71756,-248.1832,10
-0.2583008,-0.3896484,0.02075195,86.48092,-31.57252,-20.9542,10
1.621094,-0.04418945,1.999939,-45.74809,-38.12214,173.5343,10
-0.4118652,0.08227539,0.6396484,83.8168,50.54198,-248.1832,10
-0.465613,-0.118523,-0.222772,-0.00949884,-0.0032305,-0.0614276,1
-0.045689,-0.018605,-0.129137,-0.0556647,-0.1255418,0.06188312,1
0.08081055,0.02001953,0.9592285,-2.778626,-1.679389,-0.2519084,0
0.08569336,0.01904297,0.9567871,-2.923664,-1.641221,-0.1068702,0
0.07885742,0.0168457,0.9597168,-2.763359,-1.458015,-0.1221374,0
-0.10126,-0.200873,0.410408,-0.01926314,-0.0211866,-0.07210918,1
0.08520508,0.01953125,0.9643555,-2.763359,-1.48855,-0.4045802,0
0.2114258,0.3815918,1.534912,-193.5267,26.84733,-97.21374,10
0.08422852,0.02001953,0.9602051,-2.931298,-1.549618,-0.3206107,0
-1.173828,0.2480469,0.6760254,-14.22901,-248.1832,-33.48855,10
0.07983398,0.01464844,0.9626465,-2.839695,-1.70229,-0.3816794,0
-0.017324,-0.0072,-0.777872,0.27964066,-0.0137,-0.0004927,1
-0.4118652,0.08227539,0.6396484,83.8168,50.54198,-248.1832,10
0.08105469,0.02172852,0.9709473,-2.641221,-1.526718,-0.3129771,0
-0.091439,-0.326167,-0.854366,0.00048958,0.02433236,-0.00024544,1
0.023912,0.077653,0.43676,0.00060866,0.02649192,-0.00033722,1
0.2497559,-0.3725586,0.0637207,30.19847,-9.137404,50.65649,10
0.038247,-0.0667,-0.01952,-0.03584542,-0.1364,-0.14896102,1
0.01635742,-0.2797852,0.09082031,-182.9466,-46.58779,-104.6947,10
0.08227539,0.01904297,0.9614258,-2.854962,-1.549618,-0.1908397,0
0.012749,0.06314,0.344955,-0.0173914,-0.0314,0.1650155,1
0.1826172,0.4172363,0.4128418,175.6641,-33.70229,-81.82442,10
0.08374023,0.02490234,0.9594727,-3.045802,-1.458015,-0.2748091,0
0.08105469,0.02001953,0.9526367,-2.656489,-1.610687,-0.2671756,0
-0.021106,-0.0179,-0.764391,0.16346746,-0.0637,-0.19607796,1
0.09301758,0.5219727,1.980957,57.9084,-19.46565,50.39695,10
0.07910156,0.01855469,0.9682617,-3.10687,-1.717557,-0.3206107,0
0.062403,0.02934,-0.024766,-0.00067418,-0.013,0.00044122,1
0.3251953,0.8383789,1.623291,154.0534,43.71756,-248.1832,10
-0.2717285,0.4716797,0.5092773,250.1298,-98.25191,143.0687,10
0.08154297,0.01904297,0.9626465,-2.824427,-1.572519,-0.2671756,0
0.07446289,0.02172852,0.9655762,-2.89313,-1.549618,-0.351145,0
0.07910156,0.02050781,0.9631348,-2.80916,-1.473282,-0.3358779,0
-0.2893066,0.2915039,1.572754,96.9313,250.1298,-19.45038,10
-0.1965332,0.3029785,1.633057,-103.1374,-28.45802,43.32061,10
0.1098,0.017141,0.155245,0.2707419,-0.0875241,0.02170818,1
-0.5327148,0.5791016,1.999939,199.3053,97.07633,-248.1832,10
0.06054688,0.2197266,-0.7504883,-124.2137,50.9542,31.9313,10
0.08081055,0.01977539,0.9592285,-2.969466,-1.473282,-0.2748091,0
0.07080078,0.015625,0.9580078,-2.816794,-1.503817,-0.3740458,0
0.08886719,0.02246094,0.9628906,-2.641221,-1.679389,-0.3206107,0
0.016226,0.02568,-0.187026,-7.41e-05,0.02241,9.62e-06,1
-0.09179688,0.255127,0.2792969,250.1298,-102.229,247.7023,10
-0.037271,0.036234,-0.101565,0.18235724,0.09664512,0.48004892,1
-0.04931641,0.1298828,0.7546387,45.84733,-36.55725,10.98473,10
0.07861328,0.01977539,0.9694824,-2.763359,-1.664122,-0.2824428,0
0.027023,0.135176,0.212524,-0.08271276,0.0107523,0.04062968,1
0.07519531,0.01806641,0.9655762,-2.832061,-1.732824,-0.3282443,0
1.065186,0.1428223,0.7954102,250.1298,-9.473283,-0.1832061,10
0.07446289,0.02416992,0.9594727,-2.755725,-1.70229,-0.389313,0
0.08325195,0.01928711,0.9614258,-2.908397,-1.572519,-0.4656488,0
0.111081,-0.0009,-0.04026,0.00027612,0.0047,-0.00015184,1
0.042822,-0.039101,-0.59902,-0.06660264,0.00282386,-0.9812426,1
0.07446289,0.02172852,0.9655762,-2.89313,-1.549618,-0.351145,0
0.2016602,-0.2236328,-1.093018,133.2519,-67.66412,-5.175572,10
0.08325195,0.01855469,0.9528809,-2.824427,-1.648855,-0.2900764,0
0.08325195,0.02148438,0.9602051,-2.862595,-1.572519,-0.2061069,0
0.08349609,0.01953125,0.9680176,-2.923664,-1.503817,-0.4427481,0
-0.114802,0.1237,0.706624,-0.0004121,-0.0035,0.0001989,1
-0.041846,-0.0934,-0.504775,0.00040768,-0.0037,-0.00021528,1
-0.2717285,0.4716797,0.5092773,250.1298,-98.25191,143.0687,10
0.07299805,0.02563477,0.9609375,-2.725191,-1.572519,-0.1908397,0
0.07202148,0.494873,1.119873,-248.1832,-30.43511,-35.25954,10
0.2253418,0.2568359,0.09277344,138.7328,-66.61832,250.1298,10
0.08325195,0.02246094,0.9616699,-2.801527,-1.648855,-0.3129771,0
0.103395,0.070638,-0.056059,0.06709482,0.10946468,0.19897956,1
-0.00122,-0.0634,-0.261141,0.00042484,0.02407,-0.00024102,1
-0.608231,-0.389119,0.537898,0.05971992,0.04087824,0.0449787,1
0.1999512,0.246582,1.580811,-53.69466,4.419847,6.251908,10
-0.061793,-0.063623,0.220271,-0.03606876,-0.1683776,-0.15927652,1
0.07836914,0.02026367,0.9633789,-2.961832,-1.557252,-0.1374046,0
-0.078507,0.067405,0.443287,-0.00020072,-0.0056404,0.00016406,1
0.07763672,0.01416016,0.9633789,-2.931298,-1.70229,-0.389313,0
0.08784,0.157014,-0.14823,-0.00488644,0.03320382,0.13658996,1
0.08276367,0.01464844,0.9597168,-2.832061,-1.503817,-0.1221374,0
-0.050691,-0.0466,-0.332511,0.00048828,-0.0034,-0.00030264,1
0.4326172,-0.2529297,0.9145508,103.5954,-57.93893,114.5115,10
0.09838867,0.2084961,1.681641,-28.98473,21.14504,11.15267,10
-0.061793,-0.063623,0.220271,-0.03606876,-0.1683776,-0.15927652,1
0.08544922,0.02026367,0.9689941,-2.89313,-1.740458,-0.2900764,0
0.07202148,0.494873,1.119873,-248.1832,-30.43511,-35.25954,10
0.07397461,0.02270508,0.9560547,-2.687023,-1.603053,-0.4045802,0
0.03515625,-0.2158203,-0.128418,138.3053,34.48092,-67.1832,10
-0.4758301,-0.4580078,1.762939,250.1298,-56.31298,-2.442748,10
0.236084,0.4506836,0.7324219,197.6336,-53.16031,-169.9924,10
0.0793457,0.02319336,0.9641113,-2.938931,-1.496183,-0.4122138,0
0.08227539,0.01904297,0.9614258,-2.854962,-1.549618,-0.1908397,0
0.4440918,-0.06860352,1.229492,164.313,-221.313,250.1298,10
0.08129883,0.02001953,0.9562988,-2.862595,-1.671756,-0.2442748,0
0.049959,0.013481,0.307806,-0.04003636,-0.0681928,0.13136604,1
0.07617188,0.01586914,0.9633789,-2.923664,-1.70229,-0.3129771,0
0.07299805,0.02294922,0.9714355,-2.679389,-1.59542,-0.1603053,0
0.3662109,0.3857422,0.9470215,241.0229,210.8321,-203.687,10
0.07910156,0.02832031,0.9675293,-2.900763,-1.480916,-0.480916,0
0.07763672,0.02001953,0.9553223,-3.015267,-1.610687,-0.3816794,0
0.715332,0.08959961,0.2368164,-248.1832,-15.54962,96.54198,10
0.08618164,0.01831055,0.967041,-2.862595,-1.679389,-0.3816794,0
0.08520508,0.01611328,0.9584961,-2.916031,-1.671756,-0.2824428,0
0.03233,0.05222,0.034892,-0.01025206,0.097,-0.53440764,1
0.0769043,0.01831055,0.9580078,-2.870229,-1.51145,-0.4961832,0
-0.2229004,0.09960938,-0.2492676,-246.4122,22.48855,-29.56489,10
0.07739258,0.02124023,0.954834,-2.854962,-1.694656,-0.3969466,0
0.08227539,0.02075195,0.9550781,-2.900763,-1.450382,-0.3206107,0
0.08544922,0.0168457,0.9562988,-3.038168,-1.59542,-0.4732824,0
-0.084058,0.04569,-0.121817,0.01738204,0.13018,-0.02713776,1
-0.526552,0.82716,-0.732,-0.02081118,-0.1863334,0.15623998,1
-0.171593,-0.1281,0.038674,0.08585252,-0.1853,-0.42976284,1
0.08569336,0.01904297,0.9567871,-2.923664,-1.641221,-0.1068702,0
0.1323242,0.06884766,0.9731445,-5.076336,39.00763,-0.2748091,10
0.005307,0.008906,0.08723,0.00083486,-0.2275003,-0.17142788,1
0.07885742,0.01635742,0.9584961,-2.908397,-1.519084,-0.2824428,0
0.07836914,0.02124023,0.967041,-2.664122,-1.664122,-0.3969466,0
0.07910156,0.02124023,0.9707031,-2.954198,-1.740458,-0.129771,0
0.6916504,0.1572266,1.318359,-248.1832,-12.0,-34.0458,10
0.08154297,0.01928711,0.967041,-2.839695,-1.51145,-0.4351145,0
-0.049227,-0.0044,-0.323422,-0.00015132,-0.0025,0.00024648,1
0.07519531,0.02001953,0.9555664,-3.0,-1.519084,-0.1679389,0
0.07885742,0.02099609,0.9628906,-2.89313,-1.458015,-0.2519084,0
0.3886719,0.3664551,-0.6020508,-140.374,52.25954,32.0687,10
0.08813477,0.01538086,0.9606934,-2.824427,-1.580153,-0.2824428,0
-0.045689,0.399184,0.651114,-0.0003887,-0.0132753,0.00013598,1
0.810791,0.03930664,1.772217,-57.99237,-6.053435,57.63359,10
-0.2387695,0.4484863,1.477295,-248.1832,-5.458015,133.0534,10
0.08666992,0.01928711,0.9628906,-3.061069,-1.664122,-0.3053435,0
-0.085827,0.05612,0.008662,0.12876864,-0.0156,0.45279598,1
0.111813,0.020435,-0.382043,0.02174978,-0.0208315,-0.14120756,1
0.9211426,0.2548828,1.999939,-86.54962,-92.00764,209.3435,10
0.07519531,0.01708984,0.9624023,-2.839695,-1.412214,-0.2671756,0
0.07568359,0.0144043,0.9597168,-2.908397,-1.778626,-0.4045802,0
-0.237793,0.7009277,0.795166,219.687,20.67175,-145.3588,10
0.023363,0.004087,-0.651968,0.05653336,0.02481466,-0.03349476,1
-0.124074,0.063867,-0.362523,-0.0105131,-0.0229564,-0.21562502,1
0.396622,0.41931,1.213046,0.1549418,-0.0325,-0.1007799,1
0.08374023,0.0222168,0.9633789,-2.916031,-1.78626,-0.2900764,0
0.0769043,0.02124023,0.9587402,-2.847328,-1.70229,-0.4198473,0
0.07714844,0.02563477,0.9606934,-2.854962,-1.587786,-0.4198473,0
-0.442627,0.2019043,0.4943848,241.4504,-108.084,174.0916,10
0.260498,0.4626465,1.164307,-248.1832,-107.0076,55.96183,10
0.08276367,0.01904297,0.9589844,-2.587786,-1.618321,-0.3740458,0
0.8601074,0.3007813,0.6904297,-41.25191,-54.34351,-8.267176,10
0.106628,0.02257,-0.174033,0.12892464,0.00026078,-1.09097508,1
0.07763672,0.01611328,0.9609375,-2.854962,-1.648855,-0.259542,0
0.6655273,1.282715,1.006348,-137.1679,48.07634,-205.3359,10
0.002196,0.007625,0.182024,-0.00059514,0.00327496,0.00030992,1
-0.069357,0.100284,-0.666364,0.09165676,-0.0524714,0.02407834,1
-0.017751,0.01208,-0.682041,0.15753634,-0.033,-0.19295302,1
0.076494,-0.0244,0.471408,0.00014144,-0.0116,-8.164e-05,1
-0.0427,-0.111569,-0.007869,-0.01442168,-0.0210057,-0.17429334,1
0.08666992,0.01855469,0.973877,-2.824427,-1.633588,-0.2824428,0
0.08569336,0.02294922,0.9589844,-3.122137,-1.458015,-0.3053435,0
-0.049227,-0.0044,-0.323422,-0.00015132,-0.0025,0.00024648,1
0.7858887,-0.01342773,0.8493652,-248.1832,-248.1832,-78.08397,10
0.08251953,0.01977539,0.9658203,-2.847328,-1.480916,-0.2213741,0
0.08398438,0.02197266,0.9609375,-2.923664,-1.534351,-0.3206107,0
-0.108946,0.03989,0.087169,0.05571696,0.05427,-0.0401726,1
0.105652,-0.06527,-0.236741,-0.01366456,0.06194916,-0.68244072,1
-0.079056,-0.122061,-0.529785,0.0004394,-0.0088127,-0.0001885,1
0.063501,-0.1016,-0.463173,-0.16962114,-0.0592,0.01396044,1
-0.085827,0.05612,0.008662,0.12876864,-0.0156,0.45279598,1
0.051362,0.01568,-0.245952,-0.01580462,0.08745,0.5070221,1
-0.015921,0.01043,-0.55327,-0.23411622,0.03306,0.13851032,1
-0.036478,0.03739,-0.554795,0.1336478,0.10248,-0.1134796,1
0.04636,-0.090402,-0.05612,-0.00036062,0.01363622,0.0002613,1
-0.258457,-0.160613,0.155245,0.04474626,-0.0777551,-0.04665856,1
0.963623,0.4575195,0.7971191,79.07633,46.1145,-248.1832,10
0.09301758,0.5219727,1.980957,57.9084,-19.46565,50.39695,10
1.999939,-1.224121,0.4533691,-164.1221,-11.84733,69.17558,10
0.08300781,0.01806641,0.9570313,-2.832061,-1.587786,-0.3206107,0
0.1999512,0.246582,1.580811,-53.69466,4.419847,6.251908,10
0.2099609,0.6472168,0.5805664,113.4962,-35.56488,-248.1832,10
0.11956,0.07631,0.478728,-0.00429494,0.01029,0.13313898,1
0.08154297,0.01928711,0.967041,-2.839695,-1.51145,-0.4351145,0
-0.560791,0.1796875,1.148438,33.33588,32.16031,-10.29008,10
-0.179584,-0.446,-0.155367,-0.03650946,-0.0975,-0.14850108,1
-0.032147,0.05582,-0.128405,0.00124852,-0.0876,-1.18800032,1
0.108031,-0.197152,0.275232,-0.13159224,0.18282888,0.00840606,1
-0.4604492,0.3544922,1.031738,-248.1832,-29.90076,61.05344,10
0.08276367,0.01367188,0.9555664,-3.038168,-1.618321,-0.2900764,0
-0.147559,-0.094062,-0.177205,0.18941286,0.09683726,1.18872442,1
0.08422852,0.01855469,0.9597168,-3.068702,-1.740458,-0.0610687,0
0.5490723,0.5883789,0.3117676,2.519084,14.39695,-93.41222,10
0.078125,0.01660156,0.9638672,-2.78626,-1.503817,-0.2366412,0
-0.052582,0.028304,-0.133834,-0.00032656,-0.0042978,5.408e-05,1
0.028304,0.38759,0.001586,0.00050882,-0.0071,-0.00030628,1
0.07958984,0.01879883,0.9665527,-2.801527,-1.480916,-0.2213741,0
-0.261324,0.158966,-0.089792,5.538e-05,-0.0058185,-4.706e-05,1
0.08374023,0.01953125,0.9494629,-2.778626,-1.564886,-0.3664122,0
0.08984375,0.02148438,0.9655762,-2.885496,-1.51145,-0.3053435,0
