ax,ay,az,gx,gy,gz,label
0.031258665174194254,-0.04304292904183794,0.14480670171516374,0.34407477955779187,0.09663151997896698,0.4947081434655205,1
-0.2933252908422866,0.46335738706359164,1.8619767801595706,-36.984332294827745,-175.78279397789854,-2.305806004570321,10
-0.5334055497210818,0.053576328352802904,0.7348380725340393,52.719321891872404,53.303261171645765,-157.42763345954253,10
-0.005649641428937317,0.7789763092014031,1.0728535978714038,-216.770417791013,-97.61395675948494,250.17601724992213,10
0.14372014376483166,-0.014712497750242127,0.27550455899635135,0.23913985149195546,-0.14523114967619855,0.016506505138056862,1
0.5602503252483231,-0.17862287224470547,1.8318968188622775,250.14651563632628,-64.25507272412605,114.65409154015563,10
0.021012604494190956,0.004966710361423925,-0.08957551222905669,0.44344038444985434,0.09874383364719459,0.46381048848638307,1
0.0608480303828209,0.08923583060387401,1.0115553393520502,-2.757532374096505,-1.5767827454008572,-0.45473098383366994,0
0.02392955109037214,0.06104822998369651,0.9711200612755008,-3.135948263310083,-1.4535812368176426,-0.16747679184642583,0
-0.25634038962265815,0.1938636079574076,-0.0681890724012733,-0.14426479738254994,-0.059443515330993985,-0.04085844530500577,1
-0.32080070586641973,-0.005881483864931278,0.34452372245734736,-248.1297735959404,-77.2814299962752,0.024857893743917746,10
0.06585568051921467,0.038590988503188775,0.9379680233779047,-2.900782342727246,-1.4681863905463979,-0.5047652056819291,0
0.24243931246816175,-0.3011980537496648,-0.20452711702691784,-0.030944996388844986,-0.20547955455864428,-0.0663808341699447,1
0.004243168626578073,0.04134054658959954,1.0085271942106815,-2.9436295372402785,-1.551848958907261,-0.2997465461946467,0
0.05919162263743209,-0.05653497649686129,-0.3918818441519478,-0.10994910352987113,-0.053267992397470515,-0.05462731878492992,1
0.5592987973743784,0.1915950375329207,0.4926615018732443,113.23731005070498,-126.717462269653,129.25108131702933,10
0.04095439647652279,-0.035660388037981765,0.1267892916025844,0.1370830090477188,-0.06734302974212886,-0.2978757723062243,1
-0.08713001124771802,0.1551149583857989,-0.3303359580452461,-248.19263841671497,-83.1383108254612,-1.125806914837357,10
-0.7550796431189826,-0.5483709849237889,1.962627584550941,250.22654664031734,-27.5160130723718,21.71404099672895,10
0.10700868184601608,0.04696270297205297,0.9698668745030713,-2.816747452639409,-1.556856515697702,-0.21049912961517508,0
1.2394526322734944,0.44571821469744066,1.2435622493192275,160.86727411287316,46.4481224051057,-226.61426924976976,10
-0.06908428311721386,-0.010892348400972512,-0.5963095829942682,-0.15757286214537264,-0.17436048589419223,-0.0034811627246612597,1
-0.12193497778728432,-0.38983117649561405,0.9928509140850844,34.473490701809716,-14.831009910511062,-246.6858457423405,10
0.07427829911031758,0.0618241657342256,0.9477356425673866,-2.895451005936058,-1.4962119639526437,-0.2949182374079896,0
0.005713708634403632,0.12441112935699732,0.8091344839428847,-0.1698712612182748,0.016505418344344623,0.009454144809068643,1
1.2208323793311304,0.08515500577750623,-1.4661581543011513,246.86801443458685,250.07834545726791,246.43635606925585,10
-0.006103421282370292,0.06463650644217948,0.9129269430347133,-2.8691844623275906,-1.6159666910976718,-0.15112985344220364,0
-1.1732557280454268,0.16655977268554567,0.5969146118237061,-14.185508021169737,-248.2027913761688,-33.54500557896759,10
0.010404731522076952,0.14541301271350476,0.5261222077117265,0.22447833044373786,0.04000174645524984,-0.01829060003542284,1
1.10677640521479,-0.14133399511668224,1.9776202243328895,194.15283282764332,23.03868340432499,-5.844198776414018,10
0.45475705360083096,0.5687881308733328,0.3026427356619711,2.5187321765847734,14.312681825440823,-93.39466452493113,10
0.06522773864762627,-0.06697182920370588,1.0489336583965554,-3.158697610807273,-1.4558820300456354,-0.29869776107528045,0
0.11206948409257933,0.014475953324737258,0.9871084622320855,-2.780464632861378,-1.441075345691557,-0.19605752616022998,0
0.037756319741235146,0.042621495301959036,0.9877271128122073,-3.0171906440976604,-1.539512847670909,-0.38261691491615996,0
0.8140257121279489,0.8110682636079142,1.32145479925732,-242.14359811776285,53.66386556251038,35.004425533733134,10
0.9036009181241667,0.0675650783293279,-0.5071603437056992,32.775979518248576,35.660564697955664,37.268037515413624,10
0.003608532293024755,-0.06039574664271055,-0.34175684337160517,0.10994718845546109,0.1063866294819017,0.04933654480273808,1
1.1074296998658464,0.8679643697715597,1.8676804302495609,101.05684485964007,-45.75480464264048,-92.56487145345943,10
0.02217603625484498,-0.1234619568116756,-0.013225517780704313,-0.14643305167109028,-0.0781037275631308,0.3106876542029564,1
0.1589792479231431,-0.0638704681521999,0.9863364584758731,-2.8303425906647406,-1.6383447580671606,-0.26818242973872886,0
0.09049168203099717,-0.030967239999288784,0.9634947388746185,-2.654994156559365,-1.2836613803094645,-0.2386194583762966,0
1.6890144821714927,0.22906207532923245,1.7898429829192917,-2.399238217666613,19.258619749857576,-35.97596755034851,10
-0.2545279819299413,0.3089038373341266,1.7342778269261847,-96.2741489517092,-248.08009236075546,-64.28175830327386,10
0.08113443933851078,0.0077335075079864625,0.9637297954658979,-2.798230282390872,-1.7299118583546365,-0.23300353233183976,0
-0.17032709757746642,0.6575896875321492,0.7049296436081616,219.81601794946874,20.692629888064154,-145.34043706957826,10
-0.041754823885368074,-0.27525923994455664,-0.22640456762706712,187.6317344143284,-63.09739276541334,44.21517851868955,10
-0.7872977955438596,-0.10634089358640095,0.5432864257993257,63.03366314096487,107.55390157846443,-228.056833800145,10
-0.028372735297190144,-0.0015732032699202567,-0.5037840518714065,-0.2208272501054737,-0.0066245508946297035,0.058913106623267125,1
0.18765676865595624,-0.18153026655525764,-1.1502523242242018,133.24807197212004,-67.63563522906067,-5.1857571790944235,10
0.02598852338193708,0.013826076509913581,0.9178726157364934,-2.612907094973083,-1.6190872476515088,-0.25180597093296,0
-0.0028932622534372137,0.04007622480169551,-0.6898654907812077,-0.07756774503132581,-0.1078214173051934,-0.7501792794400364,1
-0.09700267175720231,-0.07740836751400233,-0.6715350203584765,0.2291873966195372,0.07686541090445789,0.1603978446585375,1
0.1067831468500807,0.09558964737820455,1.0108696380591935,-2.7002202531124864,-1.4485098976225959,-0.4380304925937445,0
1.067513873666393,0.1468907971976868,0.7985347758400072,250.42611244306585,-9.517873025853845,-0.17118857767318435,10
0.05061583600774375,0.030615043313318935,0.9650071095527694,-2.67135659717184,-1.5626309592926282,-0.4110226935997685,0
-0.08767849909930565,-0.03442201336738364,0.06290980203541785,-0.2647693023415094,-0.15816313169238005,0.04752064715523017,1
0.021649555007157054,-0.013740539383619955,0.9254068592892593,-2.6712058226557267,-1.6199545686766366,-0.45801728250548807,0
0.24649087569945405,0.21383450421842592,0.052591848969680596,-222.72516092397132,17.84929362732754,14.405166090701988,10
1.3595497197453819,0.06683025545739694,1.2069204438390748,6.337790171554131,-22.042138897677557,-81.39774168169052,10
0.5609197305772975,0.6458640891483911,0.27416370651471894,2.4845132880637437,14.277722687925532,-93.41771993577274,10
-0.14312185211051526,-0.10833311246897004,-0.47922088605186425,0.15573094815946498,0.011191828617685307,0.5242333276827416,1
0.22871421883260895,0.6292043539640114,1.1468829051207163,36.36952114953353,57.55426675441362,-131.09512449065429,10
0.14375723314213357,0.34231751527756255,0.48633780962447726,249.89597251655755,-41.3001076336044,105.53221568476367,10
0.17542173731279734,-0.05154091030060286,0.9423760004211579,-2.921627395277275,-1.5900496604223664,-0.24896617144446082,0
0.0576281614713976,-0.048225682669611886,0.04123778752214639,0.10666514149816095,-0.06493578740548642,0.008819584855841054,1
0.00995904279051614,0.1666968622423275,-0.01444984922780393,0.07298997502588275,0.13752365388266408,-0.5780436802731683,1
1.0839963917479793,-0.0875075073208766,1.9605280753081957,194.21530489401786,22.847276219643472,-5.822531209570935,10
1.7259802243695872,0.2777660722211655,1.689073285757525,-2.5117068953868125,19.274465819881673,-36.080858194559845,10
-0.07665184639537348,0.03932991809094766,0.11354130569400137,-0.18101733461499295,-0.015358530168760712,-0.3602256261856954,1
0.11447406981594574,0.3970593457279064,1.390881534050897,-141.94317631621456,-49.56559228786702,238.85327020922648,10
1.541222618941672,-0.056138729358994714,2.0413012214355963,-45.629757647114594,-38.19825596327805,173.46063414561607,10
0.29947091930638037,0.39486376403854284,1.5610261775430094,-193.4065235081639,26.967462012963907,-97.19322956369847,10
0.05884680057543196,-0.03366291674633952,1.092492452435968,-2.6854938392625005,-1.585914524612211,-0.022145339043129555,0
0.03556019678193749,0.022125678092400354,0.9812481107728416,-2.9552601008311927,-1.7953669880125707,-0.11830212317182574,0
0.07285924806309807,0.032098399191876695,-0.07391016937649743,0.20105770656364919,-0.20167957224047636,-0.17537971861947005,1
0.046128471978821084,0.04286489164215679,1.0291270370128447,-2.957371141833886,-1.5702770938733683,-0.27094472565272765,0
0.28328661552532103,-0.42082309764096737,-0.00345287383678404,30.22490464172578,-9.10802471818653,50.69502784535244,10
0.06059224210456969,-0.04219675079391316,0.0911838285168031,-0.012197715978025204,-0.07696027536701094,-0.22396983580908128,1
-0.39373672388315184,0.08548821819687301,0.6940335119718126,62.14345163499246,91.07305256396754,-217.49331863132758,10
0.956992853119249,-0.12258346771238926,0.9650879042217768,139.03296082956481,20.99121043690107,-12.371424343618541,10
-0.03176342796949942,0.06257496442228924,-0.1950433672664686,0.05531358141040972,-0.025984494476017472,0.023354964322775628,1
0.26766454335646,0.0207017432558014,0.4712716611400113,0.004485183006652887,-0.0004749759524891248,-0.08889210583152868,1
0.018632869858605593,0.04529807928718495,0.21860663271714992,0.0070847389046471,0.09980375238153054,-0.3423966060561324,1
0.2886129922363068,0.49104147635640777,1.060879671691215,-248.3048308205431,-106.9810912141875,55.931413947311334,10
0.07158155690344903,0.08564743373380808,0.9313199711952594,-2.8520077053066175,-1.58457639668323,-0.4414116126594423,0
0.36542745595860826,0.195647574084189,0.644784114290106,-144.21635116041017,68.21493509419398,-79.88319102360562,10
0.03664229892075686,-0.05492908730241549,1.020737975640878,-2.790553094578212,-1.654848850921432,-0.25329757835699124,0
0.02603498464334751,-0.0713777117607581,-0.29773359452072967,-0.03585224062868102,-0.04727213140550121,-0.46410340528687793,1
0.08495347034507299,-0.029503790184568977,0.992305375426932,-2.9562329835988517,-1.3937167076200287,-0.26457645584425055,0
0.05032075239020697,-0.14667026958845392,-0.07587460293295308,0.2115538991016789,0.04255292760882111,-0.015802098184083225,1
-0.4130287773649088,0.26227136826671177,0.2023341222278302,-79.61077559716324,-34.977606051079036,25.947365640012276,10
0.11349443090539985,-0.08551378106872778,0.987945004992001,-2.7576187588179453,-1.7398021640367243,-0.15541836407106763,0
0.10904922022142284,0.034928705235131544,0.9544662754994154,-2.845176741237261,-1.573746336558482,-0.32541429123459453,0
0.00041800118278781384,0.0975835359131448,1.0052256927172127,-2.6572224813829046,-1.451098765590685,-0.5584399078933283,0
-0.09819235546432831,-0.07084160822658778,-0.16108745059110752,0.09636057566773325,-0.0640131887841339,0.5551361498724113,1
0.6203620736788626,0.6270368463626766,0.30896680804171595,2.487060637522111,14.447599597018023,-93.46965366238938,10
0.09370131721024964,0.0059188996736455335,0.9600750012527764,-2.819431374378162,-1.7161175809540572,-0.38084679374262165,0
0.06039169245678104,-0.11153973134503721,-0.7620526640537478,0.21906919772302644,-0.23552003086737117,0.0014374890654164502,1
-0.013827062184391413,0.012294725204928272,-0.6515039287195612,0.31217446653750125,0.11240941879755334,-0.0959187310886432,1
-0.8319835634152556,-0.12064733579539211,0.6630576360601003,62.88479419403885,107.66816521738663,-228.07975124975593,10
-0.037056444313713105,-0.13246274816468404,-0.11578704715080296,0.0077199351565016665,-0.17890423832816926,0.10952620366303309,1
0.17064710769347008,0.1630427544633568,0.07777721940494739,0.19307510325961608,0.007265214015381836,0.025944250204976604,1
0.14527716919566808,-0.043511486535215235,0.9939451829995823,-2.759888027803624,-1.6545358542115833,-0.3073808810746855,0
0.03840779911038638,-0.005313267143273728,0.9876172005323989,-2.9865592138848367,-1.5437283708421394,-0.15668194592980655,0
-1.2503637628628355,0.27912553862097084,0.6405399603777402,-14.293687911150453,-248.15132426019767,-33.490693094081244,10
0.10534150579663853,-0.014735455997097548,1.0654677515216664,-2.751293282768835,-1.5109468506378336,-0.14246806105099472,0
0.017005241179249217,0.00032366924582558423,0.9066738460868473,-3.0330341980302196,-1.5824583946198918,-0.3207428887915597,0
-1.4217945500118092,0.17106884459597801,0.9434457283125091,250.114121796399,235.44703930409932,189.00042824620255,10
0.05112735500112622,0.005527213960412813,0.9708457192516503,-2.5165076289220982,-1.7785064991041557,-0.15737662320052906,0
0.01682181711244342,0.025335333035136205,1.000392819293057,-2.9962991104593732,-1.6289693321564127,-0.36661776576965993,0
0.7051245207895324,0.8178555671173618,1.7815422814935076,-189.72528247111393,24.74818177768717,49.78311359940556,10
0.04980923494788753,0.40390326861826215,0.86496212511339,-0.001858361555886551,-0.008897501675847226,-0.02170600980965717,1
-0.09328829249739407,-0.03143016279916307,0.3376390390483195,-0.11917357548466573,-0.0894808866404499,0.03544216422442481,1
-0.011814067239011301,0.004228893969309446,-0.6987153488290396,0.1475922955332833,-0.32449484190868644,0.4642358591036431,1
0.06638006256857687,0.06657168144865513,1.0174127062362386,-2.8480982964444275,-1.7644194040341998,-0.38337290529330925,0
-0.6592271809467134,0.007230285719275791,1.0300921902469165,-68.28762494841372,-80.19808113056389,101.1119750790236,10
0.17993590852620395,-0.019963322417203368,-0.44084226278881744,0.11527713212092615,0.08657607295437922,0.08714740425879615,1
-0.12405893449516633,0.01640535741418564,-0.24079209546047786,-0.09381805628436743,-0.02544277154137065,0.04993969050646563,1
0.057375848459044684,-0.00800632908727373,0.02156369893180564,0.11022199237506373,0.06777006124870621,-0.07706669365393129,1
-0.12640982831512487,-0.05407491085549779,0.08657910778005029,0.19950316801859963,-0.30776675181527646,0.06126315253949445,1
0.8569944257761255,-0.14336892714227115,0.7447590841930065,-12.854582387838745,-10.244012055498356,3.5192853939238167,10
0.10968564024807013,0.03319311041333656,0.9618719350869792,-2.8414761685451686,-1.7515069798231928,-0.2225197947596113,0
1.4994593472226794,0.0463900612047872,1.7872955243666622,-39.36498688582047,-48.48193003902153,28.656143453782988,10
-0.5256048712228176,0.7032449579788049,0.8920304928734447,-225.7639441389243,-132.6550714416179,250.11951488548644,10
0.08565989233624759,0.03572053370410135,1.0890374494944932,-2.8964728383022114,-1.7501770137583186,-0.15507694037565045,0
0.11461823512279441,-0.18713774949740283,0.05934179236433673,250.1958770643899,-103.44354949150404,3.3502245709069376,10
0.057916981199462286,0.006740899865687197,0.9091396575350678,-2.8433307703823196,-1.4426874826990292,-0.3182884469273601,0
0.11774289596974866,-0.049933147849236394,1.006466774241805,-3.1557788116736227,-1.5731323889297901,-0.2971480987942278,0
0.039822853561457795,0.07441921834858856,0.8846591182510076,-2.559696754338871,-1.7433186866196357,-0.285819718115051,0
0.09949397220977503,-0.20193769116181437,0.04130975451663132,250.17802433753238,-103.46671452750381,3.459385709255558,10
0.07711962414367524,0.04705190948456463,0.95939213559155,-2.7249253642261535,-1.3302142348368091,-0.25040865348939956,0
-0.780662094923289,0.48296995095491535,1.4208964927079262,247.81173055729775,-10.545892560492183,-195.04076349752344,10
-0.03504560150605629,0.06730276399279414,0.9290963560060059,-2.869119037050109,-1.631636931037752,-0.3579936676156788,0
0.04320894437704553,-0.007420142671034951,-0.8018081095523224,0.4709286754123109,-0.040298868290707314,-0.34621664503805494,1
0.5600733978710566,0.16860825486235698,1.04257051441823,-248.05018736506662,-63.970725475189994,24.622146002657598,10
0.6527832348271712,-0.18509603925885865,0.7780277016241058,-1.5112097966923148,-30.54940330336127,-32.679077597818484,10
0.426984859524266,0.4180145866891389,1.0619260031784066,-76.15776916173817,-248.1586219113433,110.63574460956252,10
0.08146077956356108,0.11748187470914288,0.9493564205633073,-2.7934612592568433,-1.6271230433140036,-0.33642308276524785,0
0.8624533957303653,0.40321800460885165,1.3310875015971086,138.05040688846438,89.57448970023758,-248.16683037949016,10
0.032694101614385226,0.07428758177437178,0.9023001334030164,-3.055003164236641,-1.8173755850743596,-0.17581731083122581,0
0.1367565902389847,0.04315216129623317,0.9237792856233648,-2.795083295778822,-1.4771721502984323,-0.16210895576637033,0
-0.020600635690790205,0.060723134272367085,-0.006003337393291536,0.23367567587748214,-0.14074736415023287,-1.5841387230850112,1
0.041482935557598154,-0.02942311675014705,0.8478628727272678,-3.0474934080435667,-1.5807812859369637,-0.1257815871161163,0
0.1211781525732978,0.4945152195369215,1.811164935093704,-67.79881425775787,82.63459858807852,78.13640285958532,10
-0.941215896339124,0.32263430469343113,1.8431364110177524,118.68717000982069,-33.74471840386699,-229.56673513009227,10
-0.053046096941430865,0.0663773354454209,-0.010884107077459373,0.10960286889765848,-0.007162005857165027,0.474191682854562,1
0.14099814048596032,-0.02863488701916483,1.015361142935488,-2.9259676637840535,-1.3066454578867923,-0.19638070867476845,0
0.10961426307909904,0.027009148880998576,0.8911029059842236,-3.034496250473828,-1.7362005197592274,-0.25904245366040524,0
0.22642124843098316,-0.20271203387378728,0.44695110712950314,42.84212425640346,250.3070935126715,22.537756930161105,10
0.03139649519698997,-0.0930165430096289,-0.13191421447716672,-0.09636386389519333,-0.09896799167640152,0.09510909076825945,1
-0.300547262377522,0.4547674108108734,0.5014495432672331,249.97700882318355,-98.27660814172822,142.9910346386083,10
0.09466368045470533,0.07533642257095464,0.967523553788644,-2.735369578362484,-1.5082524845607,-0.1066740084512193,0
0.07799764283625883,0.11934415443653931,1.0003261567967694,-2.9567890904065757,-1.668742399371692,-0.36562548645584725,0
0.10810700095845466,0.02858977794499048,0.9978449458166517,-2.8364167580048694,-1.6981559069415662,-0.24050295513429537,0
-0.0525841566818461,0.15263204670709174,0.07232092511519331,0.023924605885861455,-0.11192247408632039,0.027359642954872223,1
0.38762485280577763,-0.020271124468333464,0.6990495342927942,-63.74336905279074,-248.21541645526716,1.7903004674116818,10
0.05178472578327478,0.002079963244949065,0.9424390169203452,-2.89047539399675,-1.598198196777681,-0.11572518966405061,0
0.08890908652432353,0.002429798105639494,0.9899345823717277,-2.594998364434425,-1.4704429855993408,-0.4617449933659021,0
-0.36821677798657176,-0.3140445637763469,0.8244801405772125,0.06991800496959646,0.04934923310198226,-0.7589666833408975,1
0.7605100573285776,0.5237065663493893,2.0272584396825,-56.866343823292894,30.764287793254468,-145.10553496916128,10
0.09243474712771584,0.05204561867485181,0.9260661353917854,-2.9943545507681546,-1.488479127087205,-0.36424766931368463,0
-0.03477330791093382,-0.10444784655482517,0.08987647521299422,0.1264868068431702,0.05497746144809264,-1.0081679832961283,1
0.0057129375572591325,-0.00899133688758507,-0.0014840457160773257,0.1394383234482153,0.004218866605807357,-0.06905446384738433,1
-0.3760882974148,0.10133039473049299,0.6766486227756723,83.63577762906706,50.62667715958908,-248.1599436462971,10
0.015179822215417707,0.02562621564948567,0.9833054589476151,-2.86709491484899,-1.5749663563819252,-0.3432210952882552,0
-0.2558242123532334,0.7752681567771071,1.351179793961991,158.20265436957501,-38.664451526235915,-176.24049597503227,10
0.3144765445147443,0.8265046878767582,1.6743005069733723,154.02239051693851,43.79536725635077,-248.1703519076761,10
0.07965493116629965,0.018199510567977802,0.9197247291871947,-2.7997174962358966,-1.484612934064335,-0.23580021106541632,0
0.13677883466309682,0.013139125777908347,1.023479390002039,-3.1070439110094377,-1.665610398436941,-0.2618263112205824,0
0.22534534911703302,0.39253753344697173,0.2222352517156654,-0.04547974786254965,0.07280826664281541,-1.0439389597400697,1
0.11480010797264512,0.0558974228493794,0.9652845659142962,-2.967667193004962,-1.5764443395303527,-0.16271189692070076,0
0.0030117693828378145,0.09888946588453722,0.9604511019030454,-3.194410530835328,-1.6838843515506285,-0.3053086944492986,0
0.23189409988460602,-0.3612741457134964,-0.0017424012861736674,-134.41152857086163,62.803464754940805,153.2839295494085,10
0.06027458711438278,0.005388220869768956,0.09306694412526081,0.03300293915027661,-0.23225229497153055,-0.16427283049620214,1
-0.02863249410019201,0.0952231612611131,-0.02996864266994187,-0.13819031372657267,-0.15250895884442442,0.030649210487171247,1
-0.8997545135298223,0.3566396402898089,1.516897686234443,247.61558997998537,-10.672185281294965,-195.14464699875415,10
-0.1616032304321692,-0.010204693057322205,-0.1672340087667507,-0.07262295021912286,0.06235723162838057,-0.2871005309313807,1
0.13779460737715318,-0.0523980477550698,0.8957349802606528,38.551144831474105,12.017206611227031,14.253211362501109,10
-0.01717861255144361,0.04544655423070023,0.3150374592778249,-0.36334136792438915,-0.05162587035377732,-0.020244431080353648,1
0.13169320095409717,0.046198754061156644,0.21275917688338636,-0.0020470105445201184,-0.10510994141627383,-0.0970011750893145,1
-0.034129284877433594,0.14350003623790192,0.7661405857451999,45.66679104538308,-36.556359150493776,10.91455134607183,10
0.25159612586281754,0.23730102938666434,1.560628143032938,-53.74184667138032,42.03554409377939,1.3675551183676373,10
-0.02984961307133386,-0.04026064029008381,0.012820110284297026,0.375163530690088,-0.06397064775544326,-0.023034241913748893,1
0.1548441101789811,-0.05727406411379848,0.12936666773070157,149.90283494485575,-66.59666603532608,60.5783591444005,10
0.015432840569922432,0.043846845461933306,0.9730494841259529,-3.0285260410834276,-1.5409423513393083,-0.29633404846279676,0
-0.7129094994007508,0.12364883286455373,1.0015178897184107,-68.51614355358603,-80.17031252626676,101.25078365574177,10
-0.5460561637662823,1.001446066726761,1.0328052902627405,-248.1409272092963,-235.263092052502,-15.344374188992886,10
0.09463416547385232,-0.01960654697631429,1.049056627314142,-2.811091158054045,-1.6820320218920701,-0.24368578578025385,0
0.10288801470231476,0.01932567202881849,0.8799813778635972,-2.7566333370974783,-1.4516550096719618,-0.291402576738302,0
0.10263253665759413,0.0411722355764665,0.999498261159555,-3.026538783600095,-1.4362876340937645,-0.22463385079221682,0
-0.3566370481009063,-0.3988957914961504,1.7982530167515647,250.0905924622446,-56.1671569574429,-2.434682747782373,10
-0.313080370137065,0.25409088568708427,2.0453151416968858,-190.610107068654,-197.24197353307434,-30.19758765346279,10
0.12242815052486572,0.008143125865614553,0.9646883633294931,-2.998897426427447,-1.4912207095606276,-0.23479161000801674,0
0.8497312646847061,0.03142410707811696,0.9497822520488589,-205.41652642069974,-26.3726265194149,44.8400694348705,10
0.1441180281160587,0.008458648123441399,0.9796504703024053,-2.9542053875537957,-1.5331961137319237,-0.4396483863045543,0
-0.0762025478805071,0.0201509188653554,0.03206215977181265,-0.05611607505902723,-0.18509192159798285,-0.05539508775454532,1
0.10046768565912352,0.05414720038527107,0.9315223586354331,-2.8758508698129592,-1.528712847326542,-0.4313262322781886,0
-0.1822962253777496,0.22995346932181682,0.6954165744628586,142.0372011805715,-26.43782014124363,-174.04754484295572,10
0.03170755714306387,-0.16372660493059266,0.02364521334120629,-0.17678942321662014,-0.5402830479531975,-0.9211181741773627,1
0.8060849467716091,0.02248350900604135,1.7288659038071101,-58.06265691357257,-5.978048816380186,57.69126932253164,10
0.7064205121057889,0.3571094649633377,1.7164312927612877,-91.1143834629772,-68.88392498506492,249.98054746492275,10
0.11882185598727547,0.04321585623931055,0.9411057286957858,-2.956962861732181,-1.6595586519053325,-0.11378484533441502,10
0.706870708974944,0.4062530931239712,0.6732005336370537,-25.704840671236965,-78.97565247377756,139.41701594753275,10
0.33497099612808107,0.21752924549736855,1.4035234440292919,-190.0327937126448,39.734991382375696,-167.26439097448056,10
0.0193902665884155,0.11714604043127783,0.9254094618655012,-2.9980921727649226,-1.4985947068491599,-0.32752537028367923,0
0.07498117960144833,0.040679176704978004,1.0394920527220342,-2.852328366409926,-1.6675012616630798,-0.20126107562276593,0
0.0836678883869735,-0.04275004802071387,0.9835549279189546,-3.074976714091302,-1.6438890626240474,-0.20562876434389535,0
0.003320712972351269,0.030004870617764315,-0.05333437899235388,0.07763191133702266,-0.04788249723240735,-0.032696839255607985,1
0.07949498403738126,0.07339369081323055,0.9880329556139766,-3.0462184128507896,-1.5700900523708077,-0.22227184481471696,0
0.08371041537634165,-0.006468709480239844,0.959519063006249,-3.130669287172133,-1.5837303001619087,-0.4228842842213847,0
1.007767078601297,0.6602031224800039,1.1791209645241438,-57.160867884019545,-92.58203916951842,174.11567313601844,10
-0.6321317648610341,0.24865307358018965,0.9386992531565093,-248.10291554820802,-6.407863231248561,-24.2523751320003,10
0.005415608529506885,0.09015459448662494,1.0089590636394241,-2.80845963184455,-1.7016455989474533,-0.10396004122635469,0
-0.1991820145052174,0.1572595213014431,-0.04094609899022003,-220.60971715019642,29.889976445616718,54.872400549829464,10
-0.02625058440902803,-0.26170933647937705,0.5156742032107513,-0.4626732171023209,-0.13106066134535777,0.7454632294903323,1
0.12426831196212504,-0.04131625917902847,0.980574786493612,-2.7536645796979804,-1.6721035595431881,-0.3460402268189163,0
-0.2574738530211814,0.29065984781259846,1.6068484150838143,-103.08424395669907,-28.443030821690066,43.343972793324866,10
0.02037187517694799,0.08911675444626078,0.9458464617792451,-2.8364487258782365,-1.6614620157111137,-0.250749739394997,0
1.8957589531545163,-0.0939045468016588,-0.9742399572129485,21.10777873396904,-206.77757072803368,-120.84288936769629,10
0.08002284214426195,-0.05921778954118078,0.23395632152963408,-0.1366471330523352,0.014766812228073328,0.07126293272213388,1
0.08137132567452833,0.06280322284269872,1.0124631125802181,-2.72110240077207,-1.288036700268611,-0.32044981231505265,0
-0.08123647396308022,-0.04967364856337542,0.05503364953172609,0.33417481273826255,0.056737085093516895,-0.02871523894574087,1
-0.17952778874651695,-0.023051815144757223,0.11191870831984208,0.02756052385125271,0.0181991477328305,0.38862745905072993,1
0.15875306573104325,0.5766979287377737,1.7041246129612604,-67.94922723388612,82.65814407970433,78.09459595814099,10
-0.004079070489619821,0.06611689745250263,-0.23207196689887777,0.01625814594673783,-0.06327336326724176,0.014197088891105502,1
-0.022302861156449805,0.08888768629842174,0.9519744919340514,-2.5808104861087346,-1.7320584459783666,-0.4334169551148444,0
0.0999024708705459,0.04895224465855029,0.8892973248713616,-2.8490166126217695,-1.7511274756033106,-0.18633569148361112,0
0.0992060054406537,-0.08680832077950706,0.9140146691133966,20.57100055458008,-47.23497253001676,127.11234270516174,10
0.11840710047489508,0.07031729136924937,0.9452391018362879,-2.888914270351387,-1.4898828252009508,-0.3302250308339783,0
0.09699708762496073,0.00610454407583556,0.9894450436036668,-2.8280243638127294,-1.4796281528617135,-0.42206429160150466,0
-0.014851462122302928,0.23538937801179483,0.46466933109795405,0.01586660382730972,0.06737750264489621,-0.06612259182771264,1
0.08063010027773453,0.006681389803248337,0.8511263441610454,-2.6794402012917695,-1.6802048094121167,-0.33209433394459126,0
0.009234472069948811,0.10812647805216002,-0.03677245310119892,-0.33939953015237484,-0.11579599307377927,0.026517697751318507,1
0.04163222221041375,-0.3148219290241315,0.10447362012734616,-182.85548307877443,-46.67436227844231,-104.66654251244243,10
0.013174548717580397,-0.035969537780589256,-0.021163128434398673,0.12776632568069832,-0.008675453121874663,0.1658116887519407,1
0.06957928563153926,0.006873167807219414,0.9842450760063189,-2.8027151029613084,-1.5190862438419777,-0.13968935939920077,0
0.14583564171113944,0.38879116796557855,1.5307573211907002,-193.60411998544126,26.880103017205656,-97.30020287558605,10
0.08155621879733332,0.04839494992705051,0.9708626200352514,-2.5905274213230656,-1.5770721236433904,-0.36870703441495345,0
0.06712494983689765,-0.05322838754089817,0.10894848062295721,-0.16557686520613535,0.9656170962123833,0.8008024127419308,1
-0.021056435798114295,-0.15336524299255222,0.4754914607736205,-178.7626796074606,1.960830960352555,-67.44178933231441,10
0.13899794458531037,0.49355246961238775,0.40934249399584094,175.70571298744784,-33.814879758378595,-81.83634730931556,10
0.16676597103938745,0.012028565127088234,1.0009096171268839,-2.84693571848315,-1.558502312107466,-0.3007637882856914,0
0.007875100264382165,0.010463763732838758,-0.7459058318620057,-0.21000947461612846,-0.36790850484850474,0.4334721672645832,1
0.131938443026376,0.04329041870596458,1.0101006271922994,-2.953433917599832,-1.626612466885578,-0.2033570072206759,0
0.038163345006914116,0.019939151698237633,0.905548567771395,-2.8566062198304527,-1.4734434455506278,-0.3866780902852575,0
0.17181901211338418,0.035727296478955034,0.9766251320317041,-2.706903513618408,-1.5920720276998634,-0.18462862022142443,0
0.4265921791076196,0.3613771719022902,1.9584377396051011,-169.99355755478012,6.572258967759406,35.67943096425672,10
0.11555310058363033,0.1028279065943325,0.9357420706754296,-2.9205684440592523,-1.6054744759688395,-0.4266036261248505,0
-0.39022524093720906,-0.7271660449132324,-0.8608373030520816,-0.0823674642414793,-0.09449605384858624,-0.1138284994397571,1
1.492961234832806,0.5392376368808481,1.0418461681666793,-1.477564335458111,85.5550633442985,-248.17067843255361,10
-1.4381211936519882,0.05637346000966509,0.9591348167050775,249.97028815781258,235.39658433670988,189.06234369637997,10
1.171156636495442,0.7034747049958091,1.2386968008703971,-57.457383275927654,-92.76879923195561,174.1790939537087,10
1.9526923082189949,0.3495305837734677,1.5130614891569119,0.5203097523248883,80.15366277749183,-5.4413865374603665,10
0.11102365548397278,0.0720329198730583,0.8441620517791047,-2.8730990993195578,-1.5668505696804875,-0.3641011347490344,0
-0.4112625409699087,0.08057285502686146,0.6063420512825154,83.90964770098053,50.643140518542616,-248.14955963648822,10
0.1358767153797232,0.19027488720424646,-0.10461189541933455,-0.1598478522061856,0.047502300602316624,0.21974938467412675,1
0.0348950609300763,0.06697981301009637,0.974997228027409,-2.8233031159043476,-1.5607346724230327,-0.5215521620490169,0
0.22407658544952033,0.0023902405659726317,0.0618866269963373,-0.04726373745599875,0.0014691255722373564,-0.018584808199995098,1
0.03756183624570243,-0.025190457750872274,0.9416240069795736,-2.6966282577312057,-1.476476147506315,-0.15664178667686524,0
0.01495500280883396,-0.2974086142902897,-0.1404736976741327,187.34323040986868,-63.127790620206376,44.1618023239732,10
0.1905263281881286,0.16468077111168952,0.36667243087753293,-73.95934814268351,6.712881784891566,-57.97059319980864,10
-0.05644314160509171,-0.09196301635469263,-0.026265626655427,-0.038795882764020656,-0.03815303511184826,0.36051192003462784,1
0.37083249597780193,0.8079177584628661,0.9633763130613202,-0.03368501073245482,0.12882069880684494,0.5490705264735242,1
0.10438589550381917,-0.08084268606883292,0.9218031329870388,-2.8331951659798214,-1.7556493044515755,-0.08953210359601288,0
-0.07050947481014452,-0.17369956899704608,-0.5759205389005633,0.01579120429124078,-0.011967712773397289,0.06729958169167259,1
0.7663199832606625,-0.077302701002104,1.2079264134266487,-248.08104254566402,-209.3349231562891,-134.48210136795063,10
0.9071259555546787,0.2562320474447813,-0.43040811459213363,-23.65509503152365,21.403970979394394,-43.906102976209006,10
-0.019192754046670743,0.09178406989932433,0.9641585272161582,-3.0363804695788073,-1.5712310771138531,-0.2098226787607546,0
0.09651706492704398,0.11069258952188014,0.9167633500285574,-2.7267893661287026,-1.5139561497020773,-0.15666353283447085,10
-0.013997819396280947,0.2925388176377863,0.5588188529550535,-39.48031371749389,-34.66205966801841,250.11465490468575,10
0.08291323325026077,-0.04573109273617812,1.0209890228327372,-2.601353936425739,-1.6841241747490108,-0.3134260967893621,0
-0.5086495720350406,0.439201995290618,0.49871203128316866,-248.1737738173126,-59.145010659338816,-72.37501611673336,10
0.0025108710498038117,0.04921453514722793,0.9444431982920094,-2.8120707947290766,-1.5846314692973875,-0.3855655887862318,0
0.38048058022085074,0.40704700876260647,1.516447244597436,-245.5290160215245,-78.32577794969211,-228.72919141303043,10
0.11501565170649553,0.11269859426084848,0.930063739776096,-2.952375018818583,-1.673464858094296,-0.35766933975140974,0
0.49133842533030864,0.47622984287212666,1.3675366728099214,-212.57208647661102,85.92562546682743,176.20911663796687,10
0.10981665170225063,0.07505087582754671,-0.4582984203709246,-0.22415815547617415,0.0604665367781024,0.18137799769139393,1
0.04963545007144284,-0.048612139785412525,0.36403851236291407,0.00544062554153503,-0.09474603166462989,0.05115288162037888,1
-0.0900050049185933,0.4596402163130877,-0.2863108563360536,178.31067558315053,-31.664234866000477,250.1340460991497,10
0.0920037705036616,0.21731262674253962,0.6251049978914384,250.15037227295852,-117.38320416477355,17.58688453609033,10
0.30413913391939207,0.535405890168241,1.5814170822370521,74.4652297050217,65.08249630934402,-37.58309388328985,10
-0.012619495902907394,-0.06361550314672167,-0.1975423646800158,-0.13685323308612,-0.2474696761664173,0.07462277054033228,1
0.08004936211715798,0.007537506760260237,0.9729505239621569,-2.726592277195896,-1.5434720513796325,-0.22584439430034423,0
0.10072924537420871,0.0719541489778371,0.9694738227757325,-3.158461062411922,-1.620763940202862,-0.2764739827601295,0
0.07426825873600239,-0.059696228493986675,0.069705082341323,0.16024871356260834,0.12001777862064555,-0.02217281468695595,1
0.12566021580658432,0.0360259066399585,0.9594898632456628,-2.803043012973394,-1.6912347390269338,-0.2248509927425975,0
-1.254831987070997,-0.48569621395234447,-0.6847829631482236,-0.23625285681180097,-0.002357756680002338,-0.02500537772688184,1
0.7118354453262491,-0.08550895644704798,1.1255408339569184,-248.19787352118038,-20.996879373490636,103.7400851840982,10
0.42869854859371187,-0.23251700857265042,0.9477629428212618,103.37373560928333,-57.87494733607482,114.45606321338883,10
0.057988654633095896,0.040475978523759865,0.9828550574389577,-2.6954267741047833,-1.545760752159837,-0.31578026691006345,0
-0.007912383176824633,0.0419591018266085,0.9741202314303679,-2.84637841609928,-1.535667748197445,-0.3767900931153014,0
0.5905596114846131,0.022192875399836366,-0.18408601307686123,250.16756372905908,-107.40696671061706,23.863086680134973,10
-0.2675007630366218,-0.1758977981341964,-0.04767667996657733,74.07581526272486,-133.93940181965868,-110.83232716170669,10
-0.10134548838504356,0.016169304152803758,-0.012485665664776683,-0.08857839966575048,-0.013662913420814226,-0.03792337945530795,1
-1.03054091593671,0.11486458650937593,1.3553574921034464,-6.3825180172184455,-25.0471926822095,65.20625195860914,10
0.08568053904016312,0.017484868743201258,0.381829365955242,0.0640976649223145,-0.029901935136351254,-0.14073399600237546,1
0.13114074746501297,0.07793934870149069,0.8988223121798488,-2.8877597438451126,-1.4599805521569413,-0.373833446797249,0
0.10721101672724516,0.13151512173860722,-0.9148219589847251,-0.1031232259102,0.03796460729356939,0.09613841412946993,1
0.14092768684975895,-0.011009018068984092,-0.9119137545121037,-179.86716864219932,-24.629701168173323,22.270243477196974,10
-0.0002709112142554662,-0.022135453227545024,0.07732278639692132,-0.16056689592979392,-0.05686341755768383,-0.5091076984993134,1
0.034048352385489034,0.03992070029789527,0.9625778603728042,-2.766039207016425,-1.606377086966488,-0.31321994060322905,0
0.3186655703442321,0.24728480003851858,0.11492500270774639,-0.04775312848778404,0.013291456095862703,-0.01353733122560214,1
0.06705486554398313,0.37961783527821585,1.6574738824971347,68.5775311735996,25.512843540441335,-220.68609113594226,10
-0.42165166313617913,0.20582842362938258,0.6629659086386785,80.5951351116433,75.88814859990781,-207.96090471895909,10
0.0760555339463908,0.02694634205256327,0.9657644021871623,-2.9308876621273816,-1.7884676072440713,-0.1419304624005906,0
0.03097808134109501,0.4442213661846505,0.05301169017412657,0.13182983574216958,0.0025259994483300355,0.04053586011075756,1
0.06357026988228695,0.012422001248524045,0.9542883334998702,-2.821301547207877,-1.7031734562510465,-0.44893401861584775,0
-0.7365076065355083,0.16855027348999982,0.8021147252455032,250.1841807244695,15.697293800135428,44.67065940942336,10
0.04835599748067759,-0.004869463171015179,1.0187154499359603,-2.6943307775731333,-1.6764520186049912,-0.2982175686399972,0
-0.059526120502685145,0.04789695018542034,0.9616786120680848,-2.8256674505323534,-1.7339999754478277,-0.1711241718390306,0
0.07398773743977839,0.029762177614190744,0.9881530711197076,-3.2615923736452177,-1.499133879116682,-0.25182206344472363,0
0.050029606913774546,0.01230918887951403,0.9416595693137173,-3.087017134079861,-1.5044849012257333,-0.18366582297819514,0
1.538469926127257,-0.01578284834730838,1.6925694874121644,-39.741819586995696,-48.45394233632152,28.563085450177248,10
0.001906265334847286,-0.07551440195254797,0.2243996557251182,-0.12153847869232084,-0.08119047710693546,-0.06330134524842067,1
0.07886569638808782,-0.06632235839396634,0.9790703782051925,-3.1511424607013514,-1.382399590530848,-0.44668762948913276,0
-0.006416886485709178,0.04650064098572622,0.9063299128049671,-2.739366871188773,-1.4111493950926075,-0.2335487266074064,0
-0.03585025428700295,-0.24997624638514856,0.344838889577602,0.3190553844066143,0.3969235361233391,0.2262770989816951,1
0.09420316517071525,-0.416224851212859,-0.3548901194695313,-0.09883074549707416,-0.08562500477359493,-0.0770965941293445,1
1.036008480679209,0.5984200689387008,1.5705250705771951,-180.97332896886138,-7.167199443327089,-29.18827195987977,10
0.004269710757292364,0.03883363759220655,0.9224432187724714,-2.998981951348408,-1.4465786083192478,-0.09938454531375392,0
-0.10262412038374805,-0.109669611818681,0.3111856541983085,0.24728971450995013,-0.09496204087173898,-0.14800182393971645,1
-0.04738033674596011,0.004455169956135334,0.950634865942146,-2.7380931526823327,-1.4601459436703652,-0.3980984438597964,0
0.8217412300048716,0.38805698066947836,0.6683710189958754,-25.751723375349947,-79.00856816553575,139.39145658506794,10
0.05573060696562324,-0.04141065945296296,0.18358984392742286,0.09799718838938234,-0.14403430034324868,-0.009550010220468601,1
-0.018032716195872753,0.1313774178487515,-0.6839645895648716,-0.40562721633102083,0.05139344399587362,0.0979056382595535,1
0.06998957152551039,-0.01348700706636434,0.8245631048392265,-3.086661479282122,-1.5930857668662926,-0.3553917846271612,0
0.6642360078389995,0.6658498655761609,1.7618427294225656,-190.0203044214017,24.89609178828422,49.74433462627516,10
0.04318765740521199,0.001994236101267869,0.9349340748191005,-2.740404868672166,-1.6825492638988948,-0.37225185907743275,0
-0.07771298844477798,-0.050878842315257765,-0.14818609093151336,0.05261642564060582,-0.005306307937129245,-0.05312658032584854,1
0.012047605127258137,-0.03257837342196854,-0.1274586624419159,0.013667137373917795,-0.07783381614215745,0.07638881502456764,1
0.007828433418843254,0.014017555460901021,-0.6736342021645992,0.17286966529399114,-0.037877477251701167,0.008785314149731625,1
0.1340593209739621,0.013504050547824427,0.27190971836548034,-0.04644064221092119,0.3174196386743404,0.5037980959592187,1
0.3118365927667644,0.5158463677060934,1.3352045818647267,-144.19529076678367,-59.65378975604851,250.1099575863808,10
0.05783409903844097,-0.033423232230188,0.9526128489691332,-2.9211518498390503,-1.6739759824935374,-0.19363199123845637,0
0.08657125118050239,0.022930816491530573,1.038710648289663,-2.65927215362284,-1.5130140503099552,-0.23557164124553084,0
0.02733773529167345,0.021340569049185965,-0.31782125037741954,0.0010397544582069346,-0.04354768863219286,0.08827966247982089,1
0.026787646250786584,0.12544972605565638,0.8837473388003368,-2.5981591606373597,-1.5472925572922127,-0.32594811167550386,0
-0.05020252532862041,0.25420194999888285,-0.99183450841068,0.20404400896768352,-0.24564757424689854,0.5921374161591728,1
-0.248455399778918,-0.3425857985534778,2.0017931659689094,169.57058055489776,12.408603644908164,20.178729620676336,10
0.15211984504960951,0.04896744857420217,0.4475232325192785,249.92658345109797,87.71038027688796,-141.0417252636284,10
0.10593202310083812,0.566475426674671,1.233026378438267,-158.00625690064652,-248.33357334935766,34.74273747883497,10
-0.1838308950055292,0.4132230152970209,1.1795595067244116,-159.66577419315192,15.045677694193982,-74.1076175803915,10
0.1070832645599978,-0.0696965235749876,0.9109373396612023,20.599953179971443,-47.2719499374944,127.07466809641507,10
0.8510616567966027,0.29524332304540823,0.9405892178145713,-91.07504352928729,-55.14815146518971,250.07850429537595,10
-0.05349847354680324,0.043522195675444963,0.021114204269662165,-0.008500159937343444,-0.023223924519669217,-0.017081321367100253,1
0.13023686078366686,-0.0516311192751263,-0.1423593780576562,0.13851618743294408,-0.06843444807895156,-0.22801177602937256,1
0.006051467112602283,0.030060348881570338,-0.7837797244122154,0.20192282121131255,-0.11724584071960117,0.005649666188385355,1
0.4212984095870137,0.11967337567506951,0.5092668193387835,77.81795376052095,-68.34775276805532,68.30190727313443,10
-0.026631893144688543,0.15164376705349955,0.9709832082783059,-2.8516145683782947,-1.4554460318973919,-0.4015933582834084,0
0.010740915434900078,0.04323225475683999,1.047586242431649,-2.857182713074744,-1.4433763855244954,-0.25834855918308,0
0.0875684160736443,0.06464895478833854,0.9697838325243423,-2.745608912125429,-1.5201766078546162,-0.24340967846001763,0
0.0931588249661749,0.5995550093577839,1.8500946841165038,250.00030519739005,-74.55324211463366,-16.09643435621103,10
0.08923879749821764,-0.008200323499739273,0.9981966191564267,-3.0170429428697676,-1.5860966386348399,-0.3935389467614696,0
0.02899302263684795,-0.20610027765034095,0.17232833602276965,0.21885175707182822,0.0716054887957012,-0.1476850910743642,1
0.07442120365553492,0.034685124691539726,0.979509263778332,-2.7123329522031607,-1.7265233705946552,-0.283074363219897,0
-0.4060047616515719,0.10354617659376104,0.7623949643022505,62.282025721877474,91.03201986981237,-217.48669368838605,10
-0.899294231097573,-0.16074672983305116,0.520861191890903,63.24637335894612,107.62796745381729,-228.10380856660908,10
0.23564194648686357,-0.20136689618950665,0.667713055906494,-248.27591459249635,-39.66106959179707,-50.7497196555438,10
0.03383180134360534,-0.03146824196258744,0.2640832690529826,-0.033398082980456684,0.11524993601837512,0.24530805924303328,1
0.06474740517254661,0.1227737111123741,0.13566054186568394,0.0364334322325528,-0.0224207020884032,-0.0003240853863249439,1
0.04720188427714994,-0.1643568115447921,0.43399740389750363,-0.24837137744990173,0.03712209675813151,0.12299425425576015,1
-0.08764893994934989,-0.1102463900701663,-0.5391827994112226,0.060737624736269216,0.05021955554197714,0.007001355917936605,1
-0.06385140545020816,0.02615681064147243,-0.6798411324692225,0.11460201276120353,-0.16558086995420412,0.06524649252922496,1
-0.3265712683417761,-0.19040793110982993,1.7879276962091712,226.93497181236899,-87.76122183877467,18.427872392467915,10
-0.07659876532748335,0.07685365493352325,0.30410718241229506,-0.02295784297523492,0.041980549471780655,-0.013497326841025378,1
0.047481972157532235,0.04558739790718659,0.9829261472246971,-2.6513271375890577,-1.4758036699856563,-0.3322875495088497,0
0.12229560870452952,0.09252756267999604,1.0085275168254466,-3.000353785795102,-1.4979345038760437,-0.2528981765502914,0
0.017667056149045852,-0.05305871765732129,-0.03738676137446306,0.08933516019186684,-0.1272455261900266,-0.0033943389431352576,1
0.15034810006181518,0.049552486889436795,0.944378927540543,-2.9042714964535983,-1.647101384037762,-0.315241301644923,0
-0.40083299179269904,-0.09328294222660764,0.2049259045893838,-87.63961824495772,-2.0273878794392313,-123.14541237792088,10
0.6101221662276013,0.5508345196859413,1.5544195114241433,250.3507777138422,-41.831146131758736,-99.83721522818423,10
0.012572029598939799,0.0647324075652773,0.873325589545899,-2.805257364132725,-1.6493324755747447,-0.4114201812000908,0
0.39209752505068435,0.4597469831446497,1.2043535666025214,48.328309331417756,29.122205004620223,-248.1276622199796,10
-0.07020629554931265,-0.05292784631789924,0.15585591719137779,0.19128862836401123,-0.0968485121080933,-0.1794675912267161,1
0.03672183545480622,0.10921478665845905,-0.08177428327545766,0.030750768438718875,0.010381437179887779,-0.0596070922596429,1
0.030280468383542487,-0.03739580074568006,0.9124826650089491,-2.793199420019832,-1.7995371237900533,-0.3061735760113598,0
0.11427458256790177,0.8717054600130946,0.21181687073422062,0.016386401698037747,0.07153021420342007,0.1863300632165582,1
0.12279962608348277,-0.0007662781000612774,1.0248222823703164,-3.0626928317606197,-1.4274786217851787,-0.29972684504663816,0
0.36445445523314823,0.34636506653631466,0.5539847459039973,250.02384984153701,-41.25948156434381,105.6069369507802,10
0.04225911858662486,0.06611450969049334,1.0090359346643913,-2.889894139874737,-1.6372638605182996,-0.27804481990359703,0
-0.05345914967530106,-0.004623199727089883,0.9516613047841512,-2.700858036803223,-1.5210811569034246,-0.4317307031786416,0
0.01808923033957932,0.052674304897221066,0.13460520194269307,0.12454509072945484,-0.02918184663004611,-0.028455638255226928,1
0.020827568028833628,-0.1044158065835693,-0.7085889440027615,0.04379221539780455,-0.09446109273153744,-0.04188608351305218,1
0.6814046815764019,0.426117451071496,1.9558913382698446,-56.88900328709232,30.717603032721772,-145.1049022263886,10
-0.6307402237490685,0.8688016180555762,1.3036190663678557,148.42344948146697,125.04107421421698,127.05315127473546,10
-0.10268948265253577,-0.025132964049037372,0.045304166817487126,-0.12644664099811845,0.18867671790074406,0.09011780659746328,1
0.14062749032293723,0.045527546963834736,-0.19139108927491671,0.18883033998310972,0.16404622979937447,-0.6578162577418235,1
0.0796213963298781,-0.06208123916419609,0.972657916370506,-2.818111512524588,-1.6891132040111483,-0.40309848803697285,0
0.08567155875789222,0.05518590288143132,0.8820681179243617,-2.8664322155871407,-1.66327088178291,-0.5776743998110568,0
0.6742386248013221,-0.09769942872301808,-0.4036471287944099,-142.20201815938327,-80.42371627410215,209.3502317397204,10
0.9131800660320093,0.5240218292057365,1.0538254318664952,-15.541545715562966,-100.14244367868442,-158.2855585557296,10
0.7751312417114435,-0.03501919598455008,0.7514305233162817,-248.30987296775405,-248.16799458715977,-78.09025282063195,10
0.19642314245511017,0.16591323747425515,1.6381987382213696,-53.67855901618247,42.081189303260366,1.3226900410396736,10
-0.018137455844031817,-0.15375021486536805,-0.0796923726658093,0.013015774198841718,-0.13793874201888312,0.04233745967674703,1
0.07404804151864063,0.06044301686116737,1.020795881837799,-2.983640796213877,-1.570195286351318,-0.154077993864015,0
-0.017415700539580747,0.5203029925401302,1.8088343549769035,-219.88515599694753,8.986486371661767,191.7687280142787,10
0.0719600556272869,0.14561953519806645,0.1469449861957145,-0.03878451518830771,0.12245256146079984,0.015822940137530245,1
0.35036316195089945,-0.3506214754399305,-0.7613321337433849,-248.18183198342123,-29.469725438711233,-74.42467929301938,10
-0.21474010136498106,0.3351518293038659,1.6450411629789154,-96.22421689714169,-248.19215838095164,-64.30383309990097,10
-0.005288867433759836,0.024871044401725568,0.9723005237763924,-2.950042359954668,-1.8675796406345775,-0.33115417855524576,0
0.16710409095591172,0.00813267112063143,-0.14633028655026287,-0.3202877036786098,0.01182838223701006,0.22390912027021384,1
-0.05533071988479257,-0.13818879323505862,-0.6637424169165538,0.1852075335471918,0.0009815895799518554,0.06467578681594373,1
-0.4908075543072006,0.29980892590333763,0.9684825443492087,-248.24077011847254,-29.94354036230677,61.088637514049594,10
-0.36479028396887764,-0.19239780754920743,1.8457772993558987,226.66836510900248,-87.66693698328292,18.446509640656043,10
-0.052331082207982715,-0.0659793578160845,0.9276125782990001,-2.674301699969777,-1.4444162878658355,-0.18628645943856997,0
0.0420850917080644,0.04165397638236515,0.9293783656780282,-2.5704779430423477,-1.5451253873659716,-0.18906957079096576,10
0.10725049818252569,0.06780332173170925,0.9468386816078137,-2.619155452699515,-1.6310213295921712,-0.304070802217937,0
0.03375835097338412,0.5373253453522826,1.9572092100473242,57.81603379691584,-19.480488772056336,50.479924608014,10
0.9314254320297449,0.26728471009506627,2.0503525502795625,-86.3279476290836,-92.11670435436328,209.3708212418632,10
0.5124269432599545,0.26654793723004017,0.9641926044484954,68.6432992653715,-20.60869886542633,-122.25286882653336,10
-0.30317035697648553,0.46344810799230385,1.8686227451876367,-247.95098794292682,-53.76213160121074,-18.408502407055497,10
0.4127953538488393,-0.22021704643887421,0.8591493772164043,-47.01450271653707,62.21475411584923,-222.8884797205322,10
0.11049309544817787,-0.04959485878044611,0.34871763819061724,-0.00805655151150804,-0.19278726950894692,0.1278742203574271,1
-0.06297986048473837,0.0335221590282126,-0.7848939829876506,0.20378355320629993,0.03257929082688644,-0.32976460640966654,1
-0.0960706347264329,-0.07551251091974144,0.3194065530179063,-0.19121785329676358,-0.06282027526138295,-0.11565299143011823,1
-0.02498722551081741,0.04899744799454349,-0.6162106450699997,-0.23039975356819947,-0.059980471125263064,0.024563090519293958,1
-0.6692343448736794,0.45530620515592246,1.9235474403421986,124.97532682849199,26.069133078696485,-54.77282816820308,10
-0.757094650747223,0.41641745234316757,1.5409774510011383,248.0180652992287,-10.540613310735376,-195.2537975886191,10
0.2854624765139268,-0.274450140332986,0.6204514373989638,-248.21745123616023,-39.57369626826786,-50.71110210799938,10
0.01748724835873232,0.08444705969529831,0.9652095351998349,-3.017841686376231,-1.6131778751209156,-0.26650026565535406,0
0.0029487961736667095,0.025041659775501927,-0.19159308958405202,0.09671125162930339,-0.09721717661316764,0.12154570470048601,1
-0.021403388484256047,-0.12947330100076432,-0.8311419665301306,0.36988386705087656,0.14892688904413662,-0.03473576819430449,1
0.5134052867283928,0.3746393971022528,1.5773677303551341,-245.4761404189588,-78.22203685656163,-228.89347262213198,10
-0.2757535265831005,-0.34388225298643305,0.46695181474321423,0.03795799537462854,0.11689288643954532,0.16855059647880113,1
-0.14786843230086275,0.24837146018347606,0.24901274674064006,250.1448280311691,-102.23952478173993,247.75261784013819,10
0.09559825207405166,0.06526665695164871,0.1676817005010901,-0.04585536212144256,0.08146838237999995,1.6043591354545328,1
0.11505596943976318,0.07375742684014024,0.977984453090136,-4.990624538590554,39.06505800226237,-0.27010441186418016,10
0.8533597108491842,-0.028754731009705818,0.788555530644012,-248.300845556465,-248.17687567845712,-78.08507355343012,10
-0.22157380578125233,-0.19767498730484265,-0.06784255433073502,0.007745497043540342,0.11481716292480698,-0.0028166892073954175,1
0.07243526045816626,-0.013169709189957631,0.9636538268278911,-2.8264598425801184,-1.5930917538361669,-0.25658934029346847,0
1.076674843918087,0.9472719832330893,2.0096863750697547,100.79787942367739,-45.64694712833436,-92.64952416021434,10
0.08190400731477636,0.08720192263308076,0.892341175072559,-2.8541427839075313,-1.5845866111894806,-0.31710241110374393,0
0.7274852999210217,1.3371203146375417,1.045503860726677,-137.22459631775547,48.03933025131682,-205.2944986589744,10
0.12943170862434206,-0.02541464205551762,0.9946934155740683,-2.7633947041860805,-1.618322311706627,-0.31213216073041733,0
0.35976526887981275,0.16073651446776194,0.4710739958448604,-106.68092797196823,-158.24116646473,211.99580969810498,10
0.7470674971066071,0.4253345448108064,1.723888457343886,6.978978202170933,79.9124415536646,-246.08986574402164,10
0.0672671583229092,0.03957840315051614,0.9870506832660857,-2.8153854542665355,-1.6573283259995488,-0.47132592284984426,0
0.03827587320256044,-0.032126715178614276,1.0251918543938419,-2.656848746554965,-1.4876918452950612,-0.29684129894664063,0
0.010903134423592142,0.2248546834647095,0.2689713524214999,250.21325171390495,-102.16108878680241,247.73723308234963,10
0.02192488585568756,-0.04848907868623331,1.035692074442893,-2.7459599748526924,-1.6296513551709717,-0.48128332640453964,0
-0.3070569305946655,-0.11565428922127668,-0.5334407043028381,-0.19110527569132282,-0.10613949149596738,0.003649395444066996,1
0.02779212901535242,0.035332316085179324,0.9588394910530579,-3.1615674337488353,-1.648446055765377,-0.26891652453480125,0
0.06808814046521224,0.03924810747818762,0.965604749075995,-2.8685758177905,-1.5741118915477526,-0.2708590739117885,0
0.552978186944816,0.09298303417749393,-0.06662853628829611,-0.18635943297035273,0.04675410739890353,0.20078276236418516,1
0.2064292138871089,0.05014855729297451,1.0356175610851446,-3.026600849130908,-1.6229613940385466,-0.24935073822089274,0
0.11909409856717021,-0.02901785514972961,1.054394242296013,-2.8485203624460596,-1.4953272583795238,-0.33436583556523297,0
0.11960439671369419,-0.009323008901029262,0.03298888920934428,0.09579672798503745,0.07826509383206563,0.06983853096145269,1
0.003041555451500578,-0.04431486072122296,0.3164168866955869,-0.018732273689618745,0.16913744993763427,1.0015221998268111,1
0.057303064036638186,-0.10506387267621935,0.2247775015279499,-0.4485820519834013,-0.2216497289436702,1.251851062362773,1
-0.11641028939946255,0.050381191569551356,-0.771707644925175,-0.19592995478745492,0.14256755625080952,0.082621919817537,1
0.14309229800859363,0.016608784905278645,0.893179749748572,-2.7858631744899376,-1.5434583686594872,-0.18598754463708603,0
0.14836560458415649,-0.041634021690019424,0.9362551296888101,-3.0466726061631535,-1.6291706149974647,-0.19017202209775186,0
-0.09511364666224116,0.040120760494174415,-0.621352715534209,0.013311672506187958,0.03828876815185738,0.02783515423546023,1
0.1466106687255726,-0.03969725708750984,-0.45237587013947766,-0.15514505205754894,0.0817271855173906,0.3295046798669348,1
-0.06268614693628208,-0.24638615607271694,0.38694769382631833,-0.03132503351873015,-0.01776053438084093,-1.1612973457621187,1
-0.004741566130126242,0.15747823547380996,0.435657499530006,-0.02452926685361715,-0.05992407544577648,-0.061340041102094095,1
0.1311762638323493,0.015089344683489003,0.9150548118307951,-2.752859704186959,-1.5656717417745587,-0.21660104378015077,0
1.755872784112573,0.22563499728182906,1.816113590907991,145.8238003238863,-5.447158206909853,-119.29154654915247,10
0.4458493655257214,-0.18905779496947167,1.2470610835552427,-248.16665849255958,-248.11187276346496,-248.3135200520758,10
0.07966530934827584,0.0381972446010244,1.0397720396380454,-2.6186155013658943,-1.4580395459946756,-0.35454483387470076,0
0.04378492787533872,0.059237815766581235,0.9479477144731425,-2.751949935335596,-1.4844610166125252,-0.14761770721255107,0
0.1378226073646942,0.024295515087402023,0.9936569360276774,-3.1131945822135263,-1.7688306820602766,-0.5019365089627295,0
0.054097300140957656,-0.10438000175702271,-0.18808951567938922,0.13322496498241015,0.06582154154339033,-0.06575548563274371,1
0.008644377562705266,-0.06714822640361785,0.9334867806812768,-3.078730677886605,-1.5449109547997781,-0.4203704690175549,0
0.534610173377382,0.6729389623682097,1.0347780332777379,-248.19192398850137,102.78573545280985,93.6557398725964,10
0.8876128758005688,0.37598801267360976,0.5845422765128844,-236.4464897698617,-115.10980665488292,115.9589547544694,10
0.11716035068965383,0.04216376132148202,1.014043352974179,-2.9279956417626183,-1.5362950980178778,-0.3527055204787566,0
-0.23701760936816174,-0.3657902936801332,0.061471145729062496,86.68237509230093,-31.644237710138995,-20.99561234437948,10
-0.20740910181736488,0.23669421842098803,0.5500899364934513,-86.14589670264026,117.13602881454662,-211.20635974646711,10
-0.02245244684119412,0.08640515960349938,-0.05101837774511596,-0.19430388144537314,-0.11395241945423965,0.1970302315927337,1
0.5668447822003501,0.520589955743753,1.5137577317968696,250.15989353981735,-41.87421195178134,-99.96832285427558,10
0.09476380715758326,0.052416957905619094,0.9755080816710179,-3.1200365483503147,-1.5962831697443958,-0.32915100517706586,0
-0.02957037708248119,0.10188509285189136,0.09580996190878814,0.16961113383783324,-0.11886063084168394,-0.08102401072769037,1
0.0896372275829688,0.043522429306637966,0.9431563361952953,-3.0030228344465106,-1.6815293624281598,-0.30501204105014296,0
0.4264784707015344,-0.10079254665040427,0.6617207265672386,-63.7858089196527,-248.15049161640076,1.8853511390505533,10
-0.0988050941708129,0.2749007014061797,1.9504485105663674,250.01430597136414,33.050612627639374,-115.08450937711963,10
0.3180091879248727,0.47747424306490327,1.1033401601353445,-248.2199816417229,-106.97219710369367,56.02581442971603,10
0.07006759071329947,0.014449097491379247,0.8644863003749534,-2.648572552940945,-1.4970746935375925,-0.37232061134470423,0
0.4941482385541622,0.324035071005806,1.5218461457231742,-248.139121131463,-67.01048088502844,-163.07115492816,10
2.0088020683474426,0.004236349620265714,1.9167281073583922,126.45372382997094,46.366079609778474,15.284700050579431,10
0.05364068583613552,-0.09213053171575257,1.7245151977429418,-109.50257505890949,39.43159567521881,-23.882868937128514,10
0.22994416508350626,-0.2197977854643059,0.5673882600775568,-248.20748900440023,-39.661739863456795,-50.67081652731987,10
0.16080257003595072,0.05816148640976091,0.9871805836381979,-2.5829937544063557,-1.5324673476046864,-0.31897320393629897,0
0.7215460270044072,0.4477720470857497,0.7714640132105608,-25.813005863293665,-78.87394146537699,139.4295178873862,10
0.4103503116117558,0.008581768421535787,0.03094987059591063,-0.1061190695521881,-0.01295362452818851,0.17905667477004655,1
0.35718196006240766,0.9393742418606809,0.6988531508301321,-18.90512218709696,-92.53766522445152,-248.17348832837186,10
-0.24061189358913,0.23855939034423554,1.5928037689504182,96.95980727070567,250.09430543247063,-19.378964560614392,10
0.09181009597474846,-0.033692303242813,0.8974424611403218,-2.791642084642282,-1.5619968655567706,-0.5537967221312895,0
-0.1643863508063459,-0.0016035837896063998,-0.2467581307984843,0.15894079028348743,-0.04207072205429822,-0.3610181625534829,1
0.09496891467284674,0.0166915328002833,1.0446016761156292,-2.891998004581811,-1.6510666344006864,-0.15243677985628962,0
0.11955833268854023,0.20859453655602223,-0.13376290275905772,-0.01543637992038973,-0.1805528175290298,-0.1280122121593644,1
1.0503684445940262,-0.15699457752040683,2.096212643222139,194.2063610309609,22.99947434559487,-5.845958663737162,10
0.22287666398313738,0.2226770957177298,0.4704910067639142,250.3730340631967,-41.24756579151885,105.55297868228607,10
0.11866668474988282,-0.07795006021279755,0.8712027183356138,-2.917264491359905,-1.662020113555536,-0.34758700176596496,0
-0.02183684361023653,0.12144598386173906,0.23839646692946717,0.062262496173791475,0.08008801771235238,0.28472175066814476,1
0.09638881047473313,-0.0022163064108938722,0.9132086655168665,-2.7427419873593695,-1.3952728355554893,-0.39333423565973097,0
0.06329670798081388,0.010896103468561909,0.9597792517936848,-2.5182493230201053,-1.8495724213555,-0.37240324058142316,0
0.15357035958591053,0.14825709468658888,0.9920570824559676,14.293354506102334,36.603829083239546,2.1300333042514645,10
0.09751824902791775,0.027714516196945784,0.9754974925948107,-2.750774215375379,-1.5911809346851624,-0.21462430176365477,0
0.14992003053958652,0.04574402705574333,0.9243716434933894,-2.761954399527991,-1.6552567788181236,-0.351160053338423,0
-0.2259927378668926,-0.4994511636049137,-1.1143617264862695,0.05694474237788454,0.06747346072344294,-0.6610575356916523,1
0.2386512685509427,-0.017644004776225602,-0.32361164208115945,0.12220060813132091,-0.22231677225814897,0.0068838558686172766,1
0.0855566740213843,-0.01150034249325695,0.9323326698166396,-2.741749304994274,-1.5321644227225086,-0.3113373569680249,0
0.11930283158994609,-0.012151872855868183,0.9843124462861227,-2.832430879595518,-1.5130580151140278,-0.501612102911855,0
2.05577063280808,0.2417782135728313,-0.919690719471849,250.05689124547115,-99.2848700187882,-95.14158487287612,10
0.09215202371585604,-0.02899281405073089,0.25835221973821665,0.06174448424269803,0.26076918632070595,0.5711368740050379,1
0.031288168538421784,0.051970194377153583,0.924863480467866,-2.800561908083879,-1.4718420458482453,-0.48751255768779145,0
0.07049955918076922,0.040200017817742996,0.9503173552943286,-2.922640788990667,-1.5176853458966884,-0.576257629543235,0
-0.9260819994674205,0.5126767433696958,1.866416884411738,118.77218337828465,-33.635126958803816,-229.49562312320617,10
0.015110656720337845,0.013622556912538322,1.0747803489834238,-2.971351097742996,-1.6438856229299976,-0.3530522113227681,0
-0.45005373708068225,-0.11746982371292185,0.2121028231440648,-87.77671835214124,-1.8558091033190354,-123.22952855362466,10
0.04378524626049583,-0.17233809348462836,-0.5965832876387123,0.25807582298800574,0.02482125240873259,-0.06662522756624438,1
4.478270855763503e-05,-0.015777250696499136,-0.7136880773363516,-0.09978213987975035,0.05327221584087715,-0.697283418118011,1
0.08919128947056872,0.01975187563266435,0.9545780316033502,-3.0043060188322377,-1.5106555399271953,-0.09703395101133508,0
0.023675913889768904,0.07994537385595017,0.9647474708116716,-2.7734003772124316,-1.5344381584758178,-0.3102608510285069,0
0.1280200244478863,-0.046178264890285245,-0.2046558912663148,0.07125332435937241,0.1887206953945536,-0.000521383524217899,1
0.014672673948364773,0.03155001499105725,0.22434805772056135,-0.10892761378955604,-0.08862260609390007,-0.12421763905614058,1
-0.22391388342384388,0.3263703256256024,0.6700753060181105,19.094455704405906,36.307033586673285,-248.09586398737812,10
0.10096780407969803,-0.04591163156161887,0.9149610363614771,-2.518820120170517,-1.5319632122096074,-0.20700242525240298,0
0.1997299849387916,0.0012919889583851082,-0.06813105101997136,0.09557378272381406,-0.043780603828890846,-0.010392168327617366,1
0.030735207512487372,-0.0121603806785654,0.9637928478875238,-2.840532216772013,-1.5620638102876763,-0.36069395751202454,0
-0.43645257098650675,0.001011932419444625,0.6568358783737438,83.92643310797514,50.649196783931586,-248.17559996642908,10
0.07744220837265005,0.006468745644643198,1.0942676803186155,-2.7507191393939556,-1.5670422123569745,-0.19987304735901426,0
-0.459369958929637,-0.03253012231590194,0.22818947050069271,-87.52767668164775,-1.7895420556464074,-123.14409562079982,10
-0.7188383511220291,0.15709501537248918,1.189865907395264,-20.049685707648013,41.152289085214065,33.14140863090627,10
1.0826612208807782,-0.20922021674619973,1.7548226490481198,250.15213618584275,-248.1537361508373,78.60726710756227,10
0.023427500204305104,-0.028512935305015773,1.0323766449500797,-2.513194411215665,-1.6060496960539792,-0.44838766539931496,0
0.03836804242508955,0.02403947266415381,0.9556878416967248,-2.985838289096758,-1.8075117631442343,-0.372990134567203,0
0.12642813091886235,0.08860672112368359,0.9816974197230289,-2.868728802897575,-1.4779770392177944,-0.2177224192105845,0
0.17883282616808482,0.441106603659142,-0.21224435726826,-0.22552829384076517,0.088489352557376,0.19645536773510433,1
0.0029143321122583055,-0.038602480736938755,-0.5948258569421843,-0.169712802204779,-0.06370505104081313,-0.9610502493544506,1
0.04371095333249619,0.17263614710390332,-0.13875131529185647,0.038952937769747904,-0.0373501092674493,0.15619681006649008,1
0.08827948872452153,0.07768682157154483,0.9057958270177727,-3.004163435696125,-1.669870894958316,-0.25103600554580796,0
1.0807968121581355,0.956093143088731,1.9949367204933233,100.96433436320629,-45.6737327238059,-92.63915557269601,10
0.030255064015964478,0.037582202771195575,0.9085271651879151,-2.8812624479762032,-1.426505366816121,-0.09969543371652723,0
-0.20039119397635635,0.40201359784149565,1.3170707659148166,-159.79220362981022,15.168846347799597,-74.11017630894582,10
0.009184887061815486,-0.01352825763976592,0.926579110461202,-3.0887028697242593,-1.524764482092053,-0.28126895499667803,0
0.06969860064930328,0.012514503501079226,1.0022378791660393,-2.8085570624934273,-1.691597899573492,-0.3464343546587668,0
0.07010258182273697,0.0076807484032490325,1.0014610018519026,-2.966414004635545,-1.6850698942652105,-0.2509000696432422,0
0.07821149680093266,-0.0022122168913933857,0.9527832591472216,-2.8828354121762287,-1.6461591900852257,-0.35541741182782144,0
-0.06389941925155242,0.011570899725812904,-0.7552969795102737,0.02238383183762578,-0.06295253659858958,-0.7063822922183516,1
0.00708095258844349,0.10579666995715928,0.939013787249499,-2.948103941045697,-1.5416673825902507,-0.29462314020098407,0
0.1255239210432,0.05437483429725198,0.9971985589164304,-3.020818078730055,-1.6127956400197168,-0.357185749594964,0
-0.2058417531332059,0.331573012308879,1.708538055771142,-103.17002658922574,-28.502361447347663,43.3008275720192,10
-0.6410733165946567,0.07224642949226069,0.9470953926716021,-68.34093960169226,-80.13794222614929,101.06232324688754,10
1.2871669270621175,1.3432821336018537,1.1926809440046597,-0.21122294004874415,-0.2582850363294525,-0.014764450155090082,1
0.008903271826948417,0.09279577236154724,0.9783830762853812,-2.794396025667325,-1.601167011373529,-0.39111393616274687,0
0.11657016912832635,-0.014834833664602465,0.9059477971754982,-2.9017681722204065,-1.4673725400158524,-0.2858446987803266,0
0.183832501238849,-0.019753829827091982,1.0353448322675567,-2.863492119898175,-1.4247519045835078,-0.43575123752936895,0
-0.07597098758291665,0.32981941878027743,0.580792437231494,0.023251462891874047,-0.020671480780974163,0.04249572369778426,1
0.13826864808232167,0.06645443135833189,0.9269966144163502,-0.0846303267991549,0.09771737750165022,0.08650543840213827,1
0.13844572122584992,0.01392207455680004,0.9020147220185,-2.9722034679018456,-1.375198821238387,-0.4000069140829731,0
-0.2880937715127512,0.5105148116854888,0.39187840308355676,250.16047754369265,-98.28503586485303,143.04362909905115,10
-0.08593096128492655,-0.013588265907902134,0.07708432560308438,-0.057821085878017674,-0.009895446604529432,-3.611341542973545e-05,1
0.053523475752742716,0.03808944981755373,1.0027402341381833,-2.978919533563187,-1.4793131315484964,-0.17032597503517302,0
0.12573356608748787,0.06697123610223742,0.9284771458075677,-2.8962453875453567,-1.4400950220440816,-0.06743718072236443,0
0.03541460314405731,-0.02449008838036941,0.9106275322845107,38.8016507402201,12.079123440290497,14.34425625313806,10
0.34705163144814183,0.3752833072578282,0.45635754739560874,101.19459665484247,-46.86287610744537,-75.13151241152165,10
-0.18144505996228327,-0.4450485432961534,0.9662016353709463,34.288077148260754,-14.817922827743477,-246.8415599945757,10
0.047887217916777,-0.01585510085149662,0.932871381953785,-3.2118597282406958,-1.6565179820205036,-0.218845566432973,0
-0.578207694258915,0.447151658308409,0.9890906855879236,-248.32630390489717,-29.987225205116218,61.044495019537486,10
-0.5058043828791169,0.9788277955002844,1.0136709025335366,-248.11048491378892,-235.1995722768734,-15.364341300063579,10
-0.43066510282296055,-0.06671851129805638,0.33015143625796073,-87.99934500791902,-1.8355388196036393,-123.09782309483168,10
0.21413298959408425,0.12812005750329036,0.7369425066709681,0.025596414493649217,-0.03134781916486919,-0.04541169834450862,1
-0.13131441575258446,-0.08091712379619193,-0.2631231306842792,0.05320546724544498,-0.02362024973965375,-0.02352370974600764,1
-0.022148019756199885,0.016722287230717746,0.9759755545707751,-3.168032826927977,-1.4936854617595092,-0.30397578385761914,0
-0.036307957310019845,-0.06983556046553568,-0.6936696053031653,-0.25833427465515235,0.03685332620070856,0.18035726230137383,1
0.27332132092045563,0.4784756705413848,1.5872860616489817,74.21582526350953,65.17495637997277,-37.65170008154407,10
-0.10029060417898696,0.2736294841632721,0.31340118274049744,250.29401335108756,-102.16920974332703,247.71616920412382,10
0.11248838047167631,0.016116357986809687,-0.7536797104179623,-0.1347782909885761,0.002710599151507268,0.14413311535654455,1
0.009732693615268025,0.3487473945449824,-0.058559034542789025,0.0077242436177838445,-0.12563828700483654,-0.007164686236731821,1
0.14216571167722009,0.13262720909595507,-0.1377571317198877,-28.59097077664491,-203.87715394863685,209.705922868975,10
0.11560252694630732,0.06635001970802343,1.0324771900557668,-2.9452812944775375,-1.5797786841695505,-0.2104125290277891,0
0.1326357025171042,-0.003670628870384697,0.9261592792894945,-2.464019193401305,-1.6463551120769346,-0.2869712586847374,0
0.33224171601930397,0.1343115450230284,0.13905813078938295,133.52117669733698,31.898774650598693,250.20974052456893,10
-0.0562595292829311,0.027352983417674864,0.9927182960468057,-2.5268416823381217,-1.5665516165128415,-0.191206909188155,0
-0.011236141755315135,0.14750787791786063,-0.6302491610274699,-0.19051834614179594,0.03387942789015539,-0.041370715699254386,1
0.06938827152986027,0.062283637726132705,-0.4222374564388731,0.19348450757976257,0.07360836043636397,0.2595485681379469,1
0.08398610609598933,0.000249311788543918,0.9864935771893037,-3.1626679576519976,-1.6515427342828446,-0.29155022844724726,0
0.037238562528269695,-0.005912645418177546,0.9760082515161089,-3.156873663105106,-1.5179559921221277,-0.39507911320212896,0
0.18414250417461692,0.09968677285449902,-0.5830490103890785,-35.8724789538137,22.084684665216503,4.124789179092848,10
-0.025580092000857535,-0.005657636052177284,0.8657209766265512,-3.1714453630015695,-1.8295587948896688,-0.28503018750073167,0
0.14566483118361734,0.08700931421071555,0.9194621372676763,-2.892934566735749,-1.5704215717186547,-0.3341633544228146,0
-0.5502537199047383,0.08743799366030754,1.3111278140934208,-248.3259807225952,77.03111460529489,-24.425571903986803,10
-0.27504662918087575,0.1419245242989266,0.4763086213514499,250.39708987613,187.3534537971641,250.11903648167439,10
0.019302987057715243,0.06464136773878709,0.9887184373671275,-2.989018838787049,-1.697517079200914,-0.37434044084886176,0
0.14408218827481845,-0.09246139846382462,-0.2173970700521312,0.16624735948779235,0.17467510456623847,-0.7458953069682834,1
0.08661599305553572,-0.0363612690138684,0.9646265146816868,-3.257857130253099,-1.6457118610587929,-0.40163888732904096,0
-0.24602402013431798,-0.45233168433593557,1.9988598593050784,169.7044419658371,12.355767989287024,20.132354152081312,10
0.08889699908390387,-0.03702696945452899,-0.1981462144740473,-0.1597709012192367,0.10665863481759537,0.47904100176593545,1
0.08895419733539153,0.008392531775384557,0.98335467262115,-2.7711338768560196,-1.575215786418497,-0.3154465083635879,0
0.09771388603578447,0.06333492517926582,0.9593672486502097,-2.7956634378276326,-1.5231169027779048,-0.3101785817097575,0
0.1328579395880349,0.00351371888451444,1.0407163212154125,-2.9750142724157413,-1.5896437613550072,-0.2728345760577543,0
0.003093141554919524,-0.04735743118084139,-0.7957239320190455,0.17953377862975595,-0.06703945821156694,-0.055377143653445746,1
0.08979951114857336,-0.019652562645535575,0.9261968620453501,-3.18576838678792,-1.61578905564738,-0.2758875802635278,0
0.6539964166555322,0.4335713876272993,1.6288609635178242,-147.1698151906928,64.602408608156,-118.57665800627896,10
0.10465152016065804,0.011235326770014036,0.9758735477405657,-3.0575441593720067,-1.6073549419014428,-0.21076915743864866,0
0.12843918894272144,-0.008482295244676162,-0.07163083137543494,-0.15731860401422856,-0.2565754485992721,0.3209715032307642,1
0.17171331818913868,-0.012164033410933011,0.0815411015946674,-0.3835198026848435,-0.17752491940114098,-0.070321937091433,1
0.09373516720911568,0.05897883035578431,-0.18079849701328202,-0.022214777852313437,-0.039089069154190734,0.044455450065237476,1
-0.08872094100648388,0.04014307570903963,-0.8014842219315151,0.10588533540924847,-0.09443043121734312,0.1343551866080348,1
-0.7292432560277977,0.26920516131338323,0.39736194662294877,-18.839641274826644,67.12386563039509,-169.86284037767095,10
-0.17272399986650638,0.4449030972381588,1.4613749863438925,-248.10630261610007,-5.444702626334584,133.01224500274327,10
-0.08746082238562504,-0.08633024257388504,0.432126096320702,0.4360809210686851,0.12073939320767382,-0.20290155428522538,1
0.2770124972808296,0.45775618720229233,1.3031129828768067,-248.28249168918956,-107.02122259064424,55.929042485836014,10
0.07503838603750497,-0.07281752976639838,0.9323086470007036,-2.6464190533167367,-1.5897468283476306,-0.4218950822705244,0
0.08727219185119392,-0.03479898923533653,0.9607349132044308,-2.802432306739425,-1.5112553418512702,-0.4264343387705854,0
1.0500463418014272,-0.14185819024291002,2.1375903609439377,194.4269672460497,23.011474018470818,-5.968296978751941,10
0.04531333514962074,0.04500296571634953,0.9776915532797368,-2.870257763399518,-1.5484035251611425,-0.20577550243973014,0
-0.04923136204656488,0.06888260428504347,0.9808842647595815,-2.882641856138134,-1.6249564508028174,-0.2397057265842356,0
0.11695630097580637,0.03570486713833296,0.994538170032852,-2.6822595677665255,-1.4077776897642775,-0.2668318684308685,0
-0.00766426168574573,0.020124081984448178,0.9020799147231703,-2.7841480326896066,-1.6132241613762863,-0.26371378856377337,0
0.1369806775152,0.0060199028313659714,1.0248511386651598,-2.837735938704279,-1.4310647979500382,-0.2529751755883962,0
0.888112819219777,0.3654401235552994,0.706993010089051,249.9613453301383,-147.82689619475664,-107.61025871715138,10
-0.06083560588021073,-0.04058672876140092,-0.3746516451830625,0.2625904003974638,0.014793607475470906,0.5586112158523635,1
0.060580762228217566,-0.02931053982088718,1.016219037978851,-2.8645131549741207,-1.4711121345705682,-0.25405506660439364,0
-0.03376993927974958,-0.04124195551721421,0.2295759025385046,-0.01876096920393175,-0.015670490182769333,-0.024169832187707952,1
0.08416280122188734,0.05441410962704993,1.0086329148659787,-2.670931347607984,-1.3806739583484422,-0.08116850041386184,0
-0.07016857382796532,-0.12415508018516441,-0.7020081927715638,-0.19346057798791214,-0.1348381610851553,-0.04813950524460972,1
0.1367082981095119,0.0977463059859479,1.0148217767166772,-3.231926067895644,-1.5696558915310312,-0.19494571381061104,0
0.16898533376884012,0.2420599926503193,1.574099446724331,-53.546615925249625,4.489203400123147,6.245130018468841,10
0.08909691427684015,0.04252020252297513,0.9207067050264,-2.7242161114992545,-1.5201475953264303,-0.22042949655667882,0
0.05332996040660676,0.021246574612226676,0.9651725866695163,-2.522307381730573,-1.7706246484627404,-0.31039531615656535,0
0.5968798809046356,0.5855155765274664,0.9281371734278928,-248.29734091963766,102.80872248252197,93.72029427147875,10
-0.012100485999063833,-0.04876440954089971,-0.09479093862003507,0.21442471610985403,0.09236513794863616,0.002660495923744851,1
0.09583888804631081,-0.0017749892281265119,0.8707393588001728,-2.9743449326042666,-1.7317485984131362,-0.4954485456998126,0
0.13611655563465394,0.07442676180841319,0.9259751044756882,-3.0004741766453593,-1.7135133699071339,-0.2201161836742022,0
0.1456453882755362,0.15645296297987316,0.9696504518462326,-3.0892961741749776,-1.5787658561104618,-0.25252947151432953,0
-1.0056412709407407,0.35489922883905123,1.1521061616841062,250.2231051348919,87.43024955435223,-204.21094427980847,10
0.017167868548918552,0.11483701129349959,0.9694705613367202,-3.202927338869855,-1.6895059778301638,-0.2352976707421439,0
0.1360445182158497,-0.01606567992279449,0.20150742370337504,0.21745132586137328,-0.19894220067594165,0.05558256926264325,1
0.07843747023324503,0.08445180321259893,0.14203162818581677,0.037261888925738784,0.006248881676784529,0.07263965990314258,1
0.9004655475770023,-0.14393874514814664,0.9812433342945632,139.51502497371573,21.140720281406153,-12.306729533620569,10
0.07786050580742337,0.004482050745846849,1.0491308865460591,-2.8504943524805073,-1.713592315521477,-0.32682126030200165,0
-0.07470935112544543,0.01853302332113479,0.4064769186413714,-0.11009979002435268,0.09221171001611811,-0.10460937471889684,1
0.7108003535858655,0.6897106173420641,1.6444090015352666,86.56666871868761,-21.53177434627999,202.49818420705307,10
-0.08018933437287046,-0.25647911355894976,1.5035602044816823,-231.96519730111942,-65.53016356187752,-85.86178476525271,10
0.0916728259910419,0.016993014233091012,0.9331383568121898,-3.0382492724386347,-1.433817101266957,-0.6402157269780934,0
0.02365005086928869,0.10691752688001632,1.5435231180719646,-7.373379333457271,66.44671815891077,-99.96265457061965,10
0.06332352975177814,0.0448518290736882,0.9459623692887152,-2.833271717587427,-1.7631894958314251,-0.24130900643673403,0
-0.3381713167819588,0.07051907220238424,0.8722809112508221,0.14083866529935088,0.1863947623472601,0.22094700262569547,1
0.07961514454331557,0.04539345879932574,0.9193851964649145,-2.786044835577602,-1.5149301214384374,-0.27323876145955334,0
0.4520240461654089,-0.27730048888185677,0.8609773391289448,103.71540067627713,-57.92388352592434,114.46543035938386,10
0.09662501606382777,0.06038471742920243,1.0364740726456456,-2.6828194933373193,-1.6383121973816603,-0.2536677856063101,0
1.532808364185191,0.29013666416253814,1.1157608406305848,-56.996083267794084,-33.74796239691138,73.2245955994317,10
0.3506742400407824,-0.09260487392976506,0.9148114928831711,-13.598284538027825,-0.6351700881451632,-6.840043615808906,10
0.059417523646306356,0.08381268489202637,0.23773105007016868,-0.09787779693359917,-0.06674504074483169,0.003958811889404718,1
-0.04091616671612229,0.20763599151705533,-0.3447363095735697,0.04124191088997743,0.022554649259259547,0.06938662569090509,1
0.10645015658479,-0.05627711012183959,1.0620133771985514,-2.7127321629556125,-1.570013803281976,-0.3561272865489613,0
0.1859303097075676,-0.3172326406540489,0.6608401173136704,-248.11626164463522,-39.666207441872466,-50.67873330735265,10
0.32200794992583803,0.495425598191704,1.3053511450330153,-236.68332405145418,-141.60578559752108,34.22561808315134,10
0.09064510105036004,0.055133479485214146,1.0283087347628395,-2.5421263834470045,-1.8149286378102942,-0.4050852757281631,0
-1.5044812325535517,0.2168499425106204,0.40805116939298197,13.389297370301701,109.39224475374239,-189.2326310846615,10
-0.058483077298927384,-0.018336487883836343,-0.16984484322412463,-0.11712133295173935,-0.18452007071656817,0.04718424768538648,1
0.021293854022894382,0.011919654442694187,0.9699304887581357,-2.494007649498229,-1.4773600536326625,-0.07812884341823075,10
-0.2523237343635025,0.062238247857500685,-0.01664820624436791,-220.69431413990063,29.975276423279926,54.81464150237805,10
-0.3686343473071223,0.20386373734669633,-0.436273957282819,0.1489061359027047,-0.1596776230832806,-0.03459320626930753,1
-0.06739941507006945,0.0573744127946749,0.15742972357622248,-0.015138880140727673,0.22465777832882716,0.3812077290202581,1
0.16477781053774992,-0.009589892982047338,1.02847353840706,-2.9835323611580034,-1.2894756536893646,-0.2050890207450518,0
0.14975195955931223,0.04092513481465388,0.908121539554544,-3.121400276602067,-1.680897882345799,-0.32446115931484976,0
0.13588550233217753,0.007099026670127472,0.9305575724848991,-2.996842881046103,-1.6268130374706322,-0.22147225856758113,0
0.05486506957269037,-0.08394674219254969,0.9993472697656637,-2.7813809805052983,-1.509661082394324,-0.1466317800989949,0
-0.2170342149510556,0.48213837784081803,2.1184913264284253,-248.18025688941444,-54.00326865245571,-18.481554881602392,10
-0.03177637466544845,0.08118614425574239,0.17708677788883004,0.06073037757156851,-0.0252633484948671,0.04586857049128399,1
0.11038531398472612,0.016085025467448714,1.0067799141733957,-2.8884812897353003,-1.7044906248472085,-0.22230574644700582,0
0.04321019344163238,0.017817642549988535,0.9843172341136648,-2.68365352612604,-1.7000988239253205,-0.5487863809315463,0
0.031339009557567334,0.009075189807150556,0.8794744873094835,-2.823785585613843,-1.5739860486272126,-0.3941585507707988,0
0.06154972199641255,0.04909551251841339,-0.1640728224270662,0.01615893443237971,0.12426107784286228,-0.15598473540441196,1
0.03660841106911541,-0.049675274739678324,0.975996007431739,-2.8822981572581,-1.7198804842634814,-0.41717629426405134,0
0.5373797902684567,0.34609637156443823,1.3761039982518335,-70.30742867821368,13.428514438567683,-6.209457421073775,10
1.7666291006368,0.3186072264693788,1.7278947430768166,146.0123099965746,-5.679086713707334,-119.33979672995,10
0.15289653396032296,-0.11167459740592653,0.42428941959348526,-0.019391006210408967,-0.029760550531198585,0.025531951922219596,1
0.09594145282684372,0.07157859635185612,0.9424980223761341,-2.759294764466877,-1.663342460691879,-0.25385959990457563,0
-0.011425801942311048,0.08620656138166125,0.9067458655775482,-2.784446429168751,-1.7158270010331276,-0.32095348632827014,0
0.0019131915000948647,-0.1064476347182844,-0.20690515025572415,-0.11527919162407783,-0.35821944056345867,-0.46070413420583645,1
0.03989688938266618,0.021113310880917262,0.877766482164325,-2.6306853697350583,-1.7312181054737668,-0.3448768717293939,0
0.008746903899282489,-0.26560551706273555,-0.47255234204471436,-0.0668518061707041,-0.2145009140398794,-0.020498460804037513,1
0.1790274131616167,-0.0988958628401054,-0.20418664260371563,0.01626634098391247,-0.2562211084170337,0.5638578229056346,1
0.11576502015836426,0.0314010074171297,-0.36444987558801956,-0.5332350054703373,-0.2806427850210118,0.3690871140962114,1
0.10018668937743075,0.028950306230296784,0.9966642996733215,-2.9248574381265975,-1.6514616420273185,-0.3873654833817185,0
0.04204480964283705,0.17953900622698066,0.32697107864255326,-169.08590193807615,-58.30563083681268,227.3481060412949,10
0.030875492234331246,-0.07158478772417855,0.9902973403610874,-2.739012647664106,-1.6064269556969182,-0.4841050468884541,0
0.016268657501125036,0.035351549407870844,0.9156892063753365,-2.9278202955539414,-1.712031746168525,-0.4004613333737257,0
0.7906802580387511,-0.726994622576103,1.2775150410234952,153.22884304062967,-57.10138488260149,-77.75005464449923,10
-1.364425837919322,-1.1378956359052774,0.6175462998388705,-0.2102691887360923,-0.006119778877286864,0.15080933411273925,1
0.08198723672175239,-0.036495590057989066,1.0328367731909613,-3.147225233593572,-1.5970663147976987,-0.4412584838105478,0
-0.5111717734701235,0.6981147173025939,1.2272998801157349,250.11695954785753,-32.107805506507276,-80.06983868003891,10
0.013453975524332105,0.15534427691581107,0.7959572467740259,45.888990479035925,-36.6296773432581,10.936094410460477,10
0.04684402316991135,0.1517836944179664,0.9078214514677364,-2.624408210525932,-1.3621254355383428,-0.11599853916835698,0
0.7588566031765958,0.7769782855363738,1.338677872597686,-242.2717876949716,53.784893863691416,34.95258355524741,10
-0.11044446635311572,0.13146128724789063,0.1986755214372899,0.15662447868132653,0.17586994587538446,-0.008863728398326852,1
0.02687596846221718,-0.004236887311405403,-0.0497659299870924,-0.29158012205115097,-0.0743250925993333,-0.17429916559385028,1
0.027378350174930274,0.03057312838629339,0.0909805302853862,-0.2773210152522873,-0.21801467126539192,0.17902444681329238,1
0.0857767796245633,0.03366467219029058,0.9071932637739129,-2.6649305206188125,-1.7720320711911999,-0.39199865625438907,0
-0.0701219479824591,0.023904886418952078,-0.37307075243036536,0.37394835652079417,0.13145984173905645,-0.2096129694797196,1
-0.35764158286174913,0.11391043743673473,0.2903607070886327,-248.492650071662,-77.19188639782595,-0.09100475521221066,10
-0.24629875120774153,0.6244675640271318,1.2145397613815803,71.68558614769441,-120.8902074627255,128.64431064655213,10
0.066693418302514,0.08049854892998763,0.9706871135336423,-2.9777404447548648,-1.5197235956762396,-0.2580120651532991,0
0.0871032926650902,0.019989995091047052,0.961357609398145,-2.796896786971724,-1.5758450312612338,-0.30572738750349404,0
0.10127070899007899,0.021143189712473146,0.9373670714363471,-2.7069576432039626,-1.8459130081015334,-0.21955476202942306,0
-0.051047547371722526,-0.033045529815378914,0.13225412840682932,0.16383391141544873,0.012224926032129421,-0.06608173990409211,1
0.18513903267734072,0.3285996830773384,-0.23525952100641714,-0.12325440339644397,0.13677890728965755,0.16441819538122995,1
-0.061723625199359235,0.15183868709866605,-0.5181268438585758,0.11737664210367522,0.03147279870013578,0.07154464597062773,1
-0.10541395254905885,-0.13596465305329702,-0.5037138739427699,-0.09482777772883041,-0.057736634652789144,0.036800600673057994,1
0.007873917895760703,0.055746655323059585,-0.07382654915459562,0.07513755875563208,-0.005054509065544416,-1.2268690225510754,1
0.26046094686843935,0.30982860328174633,0.4353923097028105,250.11624058230595,-41.26537783278262,105.64144285833123,10
-0.05372839255715938,0.044152398489778893,-0.028085177987411634,0.14015917277900317,-0.025429296045487597,0.3229395644244949,1
0.02733680276104164,0.10489125090811169,-0.4601013737729138,0.12318287530889838,0.010238738618871432,-0.03668931491267539,1
0.0031999649644536693,-0.06632761885573402,0.9607298678798015,-2.831279656554027,-1.6538321434638836,-0.38497621711741725,0
0.06524271076092455,0.1046053601704381,1.0403872817904558,-3.072282074512281,-1.7310184585451796,-0.34598978323788837,0
0.09000396072113645,0.029088819028511306,0.2781711135022522,-0.27398295387627586,0.2089399914099462,1.004755320369207,1
0.015406889191482028,-0.2856393245526852,0.4483951260996305,-0.9279460449839438,-0.13819378643023905,0.8058596203454562,1
0.09885735904776581,0.004859203379830309,0.9550049139167095,-2.836801734354448,-1.5748236221976202,-0.09969942201201716,0
0.14518745802402505,-0.007900845584810991,1.0058035660847842,-2.7518998590330503,-1.7163271682239534,-0.3236853853611719,0
-0.7839159970275293,-0.5204725978177163,1.9702016735798726,250.0490521518931,-27.458612818719974,21.715578534856117,10
-0.06766002317861963,0.004165244050267053,-0.6223238386331932,0.35649157674405496,-0.06584243407838859,0.6907700252644217,1
0.58637858601735,-0.1270311334376325,-0.2828784135292592,-142.16959897034673,-80.49814512308835,209.34325152134966,10
-0.3619549864668643,-0.207798381072665,0.14368509371228733,-26.48141600184524,108.2012857188121,-162.30916040988683,10
-0.07012079918860578,0.0662181282576709,0.05249785564214555,-0.05524942596421576,-0.1402305310476251,-0.023954315210650397,1
-0.09854864139040749,-0.05331745979158131,-0.4329029911509677,0.1041538117112917,-0.026654327577254874,0.0030209196203589126,1
0.30802588199715886,-0.19625642779728125,0.3668856620586467,42.760899295273745,250.22223088849952,22.642700399371336,10
0.05528931112195182,-0.0008052631055923444,0.9888009393710075,-2.996875610290247,-1.7577508205941816,-0.4970962969136021,0
0.8841241147940689,0.1793367845453317,0.6852019174065948,-41.099876261752186,-54.432236068982576,-8.331214329046972,10
-0.019559811480067316,0.010533282764045774,0.9939296791140625,-2.8339928664008376,-1.426073453203076,-0.2111293797554873,0
1.1010267789741233,-0.11227394433168583,1.7298544374822995,249.89352878424936,-248.17203724133162,78.63464419619949,10
0.07275627629405582,0.09960025720060786,0.7916904860606747,-0.05541374413994798,-0.024873536683033604,-0.025758243340550983,1
0.28710397959258177,0.9982452665085283,0.7821997694433551,-18.91389258554036,-92.45297555057108,-248.16462404832268,10
0.16945118567899414,0.030764092337673167,1.0205191566454708,-2.5474149838326037,-1.693321571253173,-0.2934290302130958,0
-0.5041775494648345,-0.4533213754125044,0.390281755030371,-0.04608600928154996,0.01949785618501077,-0.10385695095261231,1
-0.14407984645299338,-0.18067814972692192,-0.0045822315110054385,-0.14956864312176082,-0.18746278242261719,-0.5615413928811911,1
-0.08718100617210045,-0.07272157668155108,-0.05896163538391873,0.3759412912796877,-0.14087311539268213,-0.3531083080435342,1
-0.10743118471668414,-0.07295694138393638,-0.054651549049611725,-0.09452204207221628,-0.06525572214689841,-0.003923644861465888,1
-1.0601366038145554,0.19406478970521185,0.9438592250595327,182.90392699779582,-168.67641148052695,108.66175331500324,10
0.05110486663099889,0.04117911204642345,-0.08837982019352017,-0.04333286819485759,0.007277364661714969,-0.012475326934053692,1
-0.16657552872272854,-0.06569118725159875,-0.11004787978026292,-0.0918833953635842,-0.17551589911581758,0.11206932921017965,1
0.10652652589655989,0.033485081499558284,0.44385566188122594,0.11328445709978999,-0.020511920827953632,-0.055702721049024274,1
0.07629820041377687,0.016565808477472237,0.8750216323928944,-2.7887136621087936,-1.4644404819739956,-0.2206658958617059,0
-0.025996733123295944,0.017585284883736584,-0.005521134472875791,-0.12348323272206367,0.10269159806960652,-0.027204155871523143,1
0.16382740144692873,0.3549349724952121,0.4270657783836435,62.94703803775271,22.058457873968873,-146.83138142840394,10
0.16812163946806905,-0.04982867704324774,-0.020911083860545042,-0.06942472361672165,0.09610245642938223,-0.012686455072866818,1
-0.04457070503301297,-0.09634384543357116,-0.04588161807481239,0.1730607557737059,0.06522621207799598,1.2874941735820267,1
0.034280557332109635,-0.12825706373921217,-0.6081060738965907,0.12628671028401087,0.16742701607470883,0.05187595724852813,1
0.1468415457176937,0.06950729461570312,0.9445285149700559,-2.933005981480269,-1.6536423991632943,-0.3397096474805327,0
-0.022368216041589103,-0.13717881512498287,0.4705288541868345,-178.7265076441786,1.8199321986030876,-67.5198940752871,10
0.09433842631828787,-0.014621033834845077,0.9256018801743602,-2.603317564339462,-1.612380916300183,-0.3433137327164212,0
0.11250262542064615,0.13609622054606432,0.034343740601757926,-0.07907216303042236,0.0447775756112941,0.007436966716691178,1
0.57767780868052,0.1148226427917976,0.39043917363708086,0.010271032645818426,0.013503110473070516,0.004796136837191032,1
-0.2873401824529849,-0.22632064333403257,0.15811657326054804,-26.227573633779812,108.2973235223303,-162.28144080668505,10
-0.0738638168703336,0.08785383333945421,-0.6366100477615038,-0.30157347271197454,0.09312539933502413,-0.0093997928155986,1
0.9471827805840642,0.31442075235510036,0.6765640779417955,250.2775038747075,-147.85048454258853,-107.63431583133718,10
0.9738503270957171,0.07120401500611057,0.7989660139019783,-146.33779186479458,-13.745084840903818,-173.4550861180109,10
-0.08147235965678727,0.007392258857645467,-0.018138759385450398,-0.09017733926717492,0.027538013962246047,-0.04110850294509557,1
0.17322472819683524,0.25523964314012565,1.5802449014764974,-53.556271013094396,4.496109393579539,6.221772783770158,10
0.08573544839016103,-0.19484729903140116,-0.5589210103419552,-0.18829223095078285,-0.130059784761332,0.06536821770228537,1
0.14041074103203785,0.1259774057819043,-0.410555564194412,-0.4521438671921499,-0.32591367994141923,0.4130971324294286,1
0.3780830915268969,0.404678465119364,1.163435354062126,0.36022053986460334,-0.07487488793600636,-0.10715915030605273,1
0.061877564869358706,-0.032751123218638,0.9889599284801959,-2.9730509185522007,-1.4644754343055557,-0.48110217727004645,0
0.11603550805846401,0.0442289200222261,0.9302615968241932,-2.869744407286567,-1.5101336069793558,-0.3933570190668104,0
1.3692127463183528,0.6378292056966344,1.0510991269538024,-1.5527159355775169,85.52090746506211,-248.09649908215593,10
0.05406197800231684,0.10342087178244411,-0.25573836877596423,-0.10838857519466302,0.12406635960183846,0.003409756319480921,1
0.08911474579693994,0.020106717502889962,0.8906128076727298,-2.9220077150311856,-1.6243710335732595,-0.26086710715363465,0
-0.01021348718639278,-0.04994259358867846,-0.3447569773263095,0.07628763802034316,-0.08210073814193802,0.4790722736007191,1
0.15661151831795672,-0.004135576787619638,0.9316172305921319,-2.886741958206435,-1.6652684061140746,-0.15993561074446774,0
0.09436947385041616,0.04323127703364277,0.9644428115332366,-3.0425082716255747,-1.4481634702474708,-0.3299632189600902,0
-0.04387384947830565,0.0869708301468403,-0.791431517218167,0.09483847005826065,-0.10424496198384732,-0.09446538396489502,1
0.1009932338383922,-0.03432337996606834,0.9745236877018948,-2.7295856826801637,-1.2487526612309081,-0.26702880667656265,0
0.04384790872874652,0.4935049754977761,1.1516991023354117,-248.23953659092524,-30.39789775472232,-35.276077395851004,10
0.14126203804019524,0.08772030580715849,0.9400423938954033,-3.0122616700883644,-1.5398272346643975,-0.2828672670834178,0
-0.3566919846946674,-0.052576943336301904,0.7651157524386302,-234.51168953178635,40.48184947694444,-1.0427041586284895,10
-0.9845131839860585,0.21934137756761707,1.5529410714770175,249.996220766047,-1.0672521730781095,-26.01184614767451,10
0.6316845901604139,0.2150241225212193,0.44392853184398917,113.11984650296093,-126.67148702272618,129.24761940869956,10
-0.3731556569113951,-0.003666739127982613,0.7736563889346396,62.216976642701816,90.96320488095878,-217.5412046996893,10
-0.060615154739625636,-0.035665778106680826,0.01427995300808998,0.06471122594379526,0.02360749267540429,-0.005328002213130383,1
0.043135279500707335,-0.01737211075973152,1.0205449245532996,-3.045867408113446,-1.4117309245446341,-0.16261245956257026,0
-0.028073068800206873,-0.2600816022387199,0.3371480630855242,-0.09083543361830716,-0.027691726058774895,-0.9965751670933105,1
-0.464360716925377,-0.4951957487177485,1.6757996405331441,250.05951032126924,-56.264634429606275,-2.4846705993102605,10
0.34763396200934105,-0.18600526643424747,0.3633953967075352,42.7654648664427,250.28441741162496,22.488071276702044,10
0.6190314559561095,0.6740921829293768,1.5785922977834619,86.64828695040684,-21.565084109761965,202.50907282103842,10
0.46111447705136743,-0.10511018009367906,1.053014087224391,20.39739373808399,-5.488145247677079,-7.3460319186758865,10
0.08084152322219845,-0.010027240828035446,0.9455822642095203,-2.898557705320925,-1.5901090764613433,-0.19892221619006603,0
0.06508891762155972,0.015063750858434654,0.9956331792418667,-2.9125064610266174,-1.6365123629026308,-0.14696093314842146,0
-0.27036802306713675,0.4347709093094582,1.9708125128479568,-40.61122420070692,15.572734395224076,-39.94750008281261,10
0.027460358688285398,0.03804154606290993,0.9109384505292097,-2.982763413391298,-1.6024774010751457,-0.3636943401401348,0
0.005800078980094632,0.3302054103707499,0.7147679588114032,-79.44782920418258,-109.99501627257756,229.3908829576237,10
0.039379463973324855,-0.14674772625363885,-0.09235343587952033,-0.1137979420447719,-0.07510839534886973,-0.22059185808923837,1
0.14846096604871276,0.10371319533912682,0.9100886333988223,-2.6803652125896607,-1.5526018929316898,-0.17401213686492106,0
0.07508171449294092,-0.0689788297338186,0.07664768412692849,0.005737839432286788,-0.27593614109795134,-0.0279736470500648,1
0.7021110643637648,0.038184529364663496,0.31380698762060383,-248.1384295966376,-15.547243833203298,96.44989823957191,10
0.06653231827380487,-0.0033446528273521035,0.9433912563037863,-2.819988358929926,-1.4831580231182477,-0.28669079554331933,0
0.6751901458648457,-0.17786297369624882,1.1559150877604263,-248.32248081365174,17.597020658494753,106.94943804459224,10
-0.03778100291800858,0.03602792787882669,0.005490537547356983,-0.13060834318312323,-0.04895580124170364,-0.030549718818033377,1
0.04196222715447939,0.1418872100526726,0.06277959649801962,0.009681971324727156,-0.06755845367086344,-0.14047174543847968,1
-0.5842828254249364,0.08992384383240871,1.2394904997423841,33.40052891121731,32.27020666020473,-10.292754280140052,10
-0.5985620299360569,0.23769567564099686,1.1968726538382082,-19.845819625500724,41.00165476449409,33.147312784161635,10
0.0006863077500261633,0.03484806899869858,0.9305405535213789,-2.5119835810796904,-1.5404831222784243,-0.12968837437559377,0
-0.10899960414112406,-0.16421265262523,-0.58268074975053,-0.15931182682491526,0.032013057462412856,0.003524741900200267,1
-0.7064090688372408,0.16817464941854096,0.7694435361477192,250.0549195620206,15.881444016664744,44.72216048965699,10
0.12466983103857252,0.08769327760812844,0.9376703757812949,-2.597101349022553,-1.6504290452455967,-0.16915461258180553,0
-0.056289558524309724,0.07000826167464537,-0.6615201355273768,0.1004949492867798,0.024189237282897708,-0.044159504500831254,1
-0.020615094474290902,0.13996151360301887,0.19696698609587826,-0.045873425036590754,0.07322605760347185,-0.044661702011828834,1
0.01846827000554517,-0.017585164077950483,-0.7130817896073102,0.050317130012064865,0.07966617093998755,-0.19742105919966701,1
0.06476324389730077,0.037859641475796235,0.9199350425604146,-2.6491886631743524,-1.545795597215286,-0.27002121378539057,0
0.0602284146124139,-0.013956661491413523,1.0037652292911126,-2.9749596411882107,-1.5730039847298658,-0.13254766714570201,0
-0.7682041185896554,-0.3299275753229752,1.0015068946684158,-0.20811638035045218,-0.16247697702114428,-0.6459203399437929,1
0.08820590501303803,0.009560081781419361,0.9973850438590105,-2.6135768487796307,-1.7248702453665676,-0.22912754061197085,0
-0.17121253528528751,0.12166478245315787,0.6415847121193846,0.16409794318022147,-0.13174535611013652,-8.204827538183028e-05,1
0.027684103860199413,0.08825879529326873,0.871770459738955,-2.8474801284807545,-1.6069642635646992,-0.2585679032594175,0
-0.023122277088872156,0.12018643388796274,0.9310793649894789,-2.9022505954745,-1.664155260326898,-0.4097460866789486,0
0.5332780003393294,0.577491240906673,1.0657899648811706,-248.09340752213603,102.7717952552974,93.71968790039352,10
0.16039439333706976,0.06168853201404119,1.0077122625428314,-2.913070989436255,-1.3873823152653464,-0.24985294527185742,0
0.05510600525212389,-0.04634538802290934,0.9484578986727656,-2.895535088906862,-1.5009807025545856,-0.27464467482582455,0
0.37562924265777947,0.053285032483622985,0.31072616497204947,166.9096570010647,103.56187237021621,-113.83602923744463,10
0.09517063089169552,0.01232671175804066,1.0030405340499136,-2.859149573655919,-1.5775024166625988,-0.39833856746381296,0
-0.14932621120969175,-0.07760286950600286,-0.3764980585103448,-0.09752296616301906,-0.1193000935357832,-0.0660323168773183,1
0.03605414421533784,-0.03942770302986653,1.0254244233083056,-2.964098980529291,-1.4581746027725977,-0.32815169635715696,0
-0.6761068598580365,0.018928798415223762,0.9339181706959441,-68.5521591164704,-80.28257017909402,101.09848608226302,10
0.17685264920875093,0.0037049685261422542,0.9338603823381726,-2.972615524857303,-1.6021838374041784,-0.40296380260838266,0
0.08997745527126838,-0.038922975715801195,-0.04587614405575255,0.07166768324310248,0.055281701481846815,0.05656218129084007,1
0.10128224955635994,-0.0026266211331176428,0.9757014535981602,-3.0633849204958854,-1.6349470356989964,-0.4135886241232617,0
2.0545181809688735,0.22280370128280635,-0.8991496702827312,250.09184170194027,-99.20843192378392,-95.16913053930591,10
0.9806928143359538,0.5003114844648274,1.1244379674978666,-15.596469790289783,-100.0814126285227,-158.2570299661402,10
-1.0810646404121849,0.28882094464693986,1.347190270700248,3.931639332768731,6.14244557164891,149.47972626107548,10
0.3952125154568026,0.32199610638110254,1.4740140674082838,-189.7469559443559,39.79621154547075,-167.27256422025343,10
-0.7928144644398811,0.14485637615140362,0.3683482801839438,-18.853272032933585,67.18700858663527,-169.92064417207192,10
0.10287639094320633,-0.13253624619340054,0.972304918379542,-2.7801668787443403,-1.6791318228816432,-0.22593354737533958,0
-0.11030899319207088,-0.04107503973101295,-0.4767592016013127,0.09193304077996796,0.0907255326803599,0.00678360786637825,1
-0.02730748995864283,-0.07152728514616712,-0.7431381406440649,0.17603399702209327,0.04876255281721853,-0.04996015130815166,1
0.23029432489699062,-0.004242299363192051,-0.2514311093870678,-0.11026812290367173,-0.16833215419436748,-0.03303292550630037,1
0.024727826855373482,0.12780909677402835,0.8476747986605061,-2.9492005147399274,-1.5367710090300108,-0.20215476639595042,0
1.2605044471339466,0.16983079751518346,1.1012089435507608,6.240395437970591,-22.058557775912835,-81.33414686688683,10
0.12968458068533234,0.041755598946459374,0.9670753263221527,-2.504970646496045,-1.7102436610946388,-0.14798736313756267,10
-0.154551473651937,0.08485587056335729,-0.03621714689399309,-0.0983285558329056,0.1434196361861486,-0.05315135678210776,1
0.09824619770060355,0.058678238176696054,0.32974048629603875,-0.09249756211346827,0.09566528121810512,0.15929170596167708,1
0.09403011848166795,0.01059737216167551,0.9724902472335847,-2.9899009417363374,-1.5637431293105193,-0.23409781282941586,0
-0.02577619718677269,0.020113564584045614,-0.004586125562038317,-0.3807895499174795,-0.14264442980154773,-0.11212188123934363,1
-0.023579586236357777,0.009347815660339747,-0.782935624675215,-0.11146376638681671,-0.4486805859592434,0.5383456494413816,1
0.11268534209337608,-0.037975591888876656,0.9554528080265123,-2.5632619735845408,-1.4024970295122468,-0.14605182945586687,0
0.12070653128374517,-0.05665319083711342,0.9794584736777627,-3.11103084298345,-1.5411146331220016,-0.30011118723167224,0
-0.1724557899159667,-0.1099600638698133,-0.5187323695013588,-0.0009597416242838095,0.028849969802034116,-0.02692747913487169,1
0.1630801037956342,0.02505242743714731,0.09596163876606578,-0.15380175298878274,0.11242053756039037,-0.029888169262606977,1
-0.1591325327188242,0.032142337165251736,-0.16274045379722504,0.13295714744899484,0.14244647621667278,-0.22017710051288658,1
0.09396328182572002,-0.06858955056369137,0.09680789011201621,0.10400104813533012,-0.010233336965486374,0.06073171795305886,1
-0.4401325159446383,0.08920706820299268,0.5052880688452357,-248.13814080159585,-248.05429400836334,81.76256244619124,10
-0.3835211411933013,0.22865985950708348,0.042241735900998514,165.97352277492524,-91.10428683040492,168.21132617895796,10
-0.7231616471904294,-0.29280638968087863,2.0040662585126046,142.8406315672641,63.51980475668106,-42.22921318508227,10
-0.023901925445758997,0.05615168044200938,-0.0165409902590376,0.10790077065766464,0.041926620441448625,-0.01523084692541332,1
0.03367512318062792,0.05650892019949634,0.9665976188589044,-2.7098669935203588,-1.4876635385010077,-0.40176779752439135,0
0.08306219643849504,-0.03443400112226713,-0.8108086637203263,0.3137827167073657,0.17910347934425738,-0.16453143557343167,1
0.7365990077819344,0.6994857825281777,1.3542491392032603,-242.27264102423328,53.70950855030166,34.97653362529038,10
-0.02608079548639338,-0.05921906012137368,-0.22932462875093373,0.12432802637640163,-0.02433772224134157,-0.03180953013321537,1
0.18348166089511164,0.09470845490836088,1.0149498075923888,-6.572685405615071,-21.164529681924602,1.3277723407898252,10
0.11859821848113056,-0.15378547892965544,-0.1973220153247982,0.14163251564601131,-0.0611489948149464,-0.01885588109582172,1
-0.011914462542704354,0.01023217581878052,0.05020829540750078,-0.025064837695949856,0.025633826970456387,0.08507858788150593,1
-0.024532724613441637,-0.03990509494262173,0.1596384540564924,0.10254981169677621,-0.07447397872034768,-0.21103517900806446,1
-0.2832193313498307,0.5363880587559803,1.0310172435201268,103.83425883214132,11.31289158810692,-231.00823869148954,10
-0.08673611171213734,0.14866805141476314,0.28445340537902836,250.2910608457654,-102.42486349019859,247.75714585101724,10
0.6543905264589269,0.13468693428067366,1.2701204623118654,-248.10124363923964,-11.913981514525586,-33.95190872250733,10
0.051601051517963785,0.048375332276436256,0.9340623654961531,-2.7453448413672765,-1.5096431246588207,-0.14866571517021338,0
-0.044381750353754704,0.01641360587830923,0.7935530318506822,0.17117551631643235,0.03535559160667029,-1.0202452240674662,1
-0.6290344186849938,0.9037060404387345,0.715649716069208,-0.0760892965608132,-0.043491973156047206,0.06285731732611426,1
0.10686295507024442,-0.07000830688510241,0.9310859981703872,-2.6314310988553675,-1.8212524484423878,-0.48355138085263283,0
0.1403438047359647,0.07297732012745306,0.18893993069492043,-0.20600680283760378,-0.008643708527121041,0.22797962670559965,1
0.14702009728032978,0.07740949381343115,0.9861493867589308,-2.79029250698128,-1.707859007499985,-0.4102035570890996,0
0.14361964699310603,0.024902496413687854,1.0864669303888692,-2.850010121765277,-1.6891452161555476,-0.29313179006133566,0
1.0814555078467263,0.3604433068051366,-0.4246615017205959,126.05707529177005,95.9240320333742,16.973894250827737,10
0.7130627180723167,-0.12653233773752337,0.9306979939497102,-129.8200786691114,-202.18679325719492,-176.29565278198913,10
0.11672365667730555,0.04291781586630683,0.09902796018202294,-0.013903472343145842,-0.005969952825228847,-0.015428407857769213,1
0.04099176344813755,-0.02380352516531159,0.9311275325304379,-2.8827153304396855,-1.481095825473371,-0.3486269375878252,0
0.2968470385403394,0.1360634055300598,1.95070150423909,-56.46122059219023,-5.830080895242753,121.36088469660845,10
0.16555165537067115,0.038321509517743886,0.9442120266591182,-2.7672192385974466,-1.6390341701077735,-0.34799304012885734,0
0.07998866212326576,-0.11149120099280564,0.02806743495324872,-0.2520947755781368,0.024054132824750853,0.007092631294583542,1
-0.022761632572167446,-0.02052305588169286,0.22319316952003665,-0.12564901191996147,-0.21492503219513784,0.02070648489741421,1
0.7699043694359623,-0.01422301732595408,1.6213953084303765,197.98406314061964,106.47184771881467,-246.22024671404785,10
0.003267152314983493,-0.05997637537416537,1.076472178461906,11.081053749417292,-153.30371732996548,-35.61990580139943,10
0.15688539249806122,0.5713455720721842,1.8392829466886575,-67.85545845039728,82.73468991041597,78.240040270382,10
0.1002922323517655,0.48349595100796494,2.0589209943647346,58.07133699551644,-19.439045324970216,50.424940374546004,10
0.013311540774955749,0.04129594128692053,0.8957086016553126,-2.9920699469535417,-1.5077502347561644,-0.16816968670985408,0
-0.14611461110683527,-0.4121310177180868,-1.0863951892751058,0.13327038789409246,0.10383995748607588,-0.6837822688980529,1
0.43855279232831984,-0.036231292613082805,0.7813233883190295,-11.289966692556836,4.560491591329432,22.64927694162828,10
0.04378790716043131,-0.03123392829641543,0.9846931533777464,-2.86799817195146,-1.6119836074847838,-0.13035276593750736,0
0.20229913678263686,0.20898101071312103,1.6305529588233305,-53.63848571316235,42.16318291510333,1.3835717770525182,10
-0.0428778433621449,-0.06286626132293906,-0.055419180896177304,0.01767991319175691,0.004610317190040144,0.08670667171357159,1
-0.22625919289436913,-0.17401167312027108,0.0646189754499741,-0.11725220687393213,-0.05403183781957355,-0.4845823364226014,1
0.008945881656790985,0.034733219012393596,0.9119111470177567,-3.137247562920791,-1.5978086528793942,-0.0710701781980673,0
-0.023180831083303786,-0.12361927620218385,-0.4274194885280614,-0.047694096925793183,-0.08645274209036119,0.010469234087994278,1
-0.564160043403376,0.8265867789169932,-0.782454365516485,0.2898331312522782,-0.23314072068435285,0.15376800262173276,1
0.03492510127498702,0.022139192603835296,0.9395751814103651,-3.038934549827803,-1.6952592516362097,-0.07853915099760533,0
-0.027042468755595912,0.08743549010458433,-0.09048537377682558,0.04307221589627829,-0.09114982028190279,-1.2259442370826092,1
-0.2111260202633436,0.3216033048340745,0.8513054475978566,221.17943175081197,209.29909395812453,-248.1792735427821,10
0.3823299120264777,-0.16126515656230517,0.8920360250083017,-13.660716808052078,-0.6582484642337393,-6.9076255480455835,10
-0.5590915345890872,0.2960758880248404,1.0084767844172218,-248.2092480605234,-6.602325261331462,-24.2629665260755,10
0.227612552066196,-0.04474399315285926,0.9416917121832385,-2.9335533739771216,-1.594517412002317,-0.24860423696162925,0
0.26422338856653094,0.31232985568089466,1.4885529806649918,-190.0730337566069,39.81466138229078,-167.24223558820074,10
0.061646290903942996,-0.06095742800157237,1.0006556574685705,-2.983412198183797,-1.6714368646437472,-0.19272909222910087,0
-0.07916649792605239,0.09405600105852308,0.8243604403584841,45.7107946534039,-36.58301384459901,10.926668356289337,10
-0.029024797749423722,0.057021803052431985,1.015685703451531,-2.7923827799233067,-1.4531282458609225,-0.19820947384466614,0
0.7863267003593505,0.9114003330725319,1.382920146542035,128.9584901390037,-12.251308415993106,-217.2516943900451,10
0.1323891616845331,-0.038619286605461475,1.0444636655683226,-2.5920032042142753,-1.6504482757816805,-0.17480973581908468,0
0.11149216849357067,-0.020222905508668603,0.30696917253108347,-0.04744845127577542,0.1993732532546605,0.5261955550576723,1
-0.16162749959528505,-0.007664027102294441,-0.2757805957887477,0.20661626229860977,0.053272088495290325,1.188591581660224,1
0.12081150801391094,-0.08238821262313577,0.9618434888203337,-2.811407620253124,-1.4743219397627927,-0.33233081693173994,0
-0.7266226775518582,0.6938223256324627,0.6793472629923875,-202.57207598166153,-66.4799330792921,250.10840135077115,10
-0.014932945222173533,0.0732784480811226,0.9483764935449587,-3.053778882517803,-1.519428918215868,-0.20971995874500082,0
-0.002144242792270088,-0.02523123945199371,0.061336583453705004,-0.09589775305003881,0.02048980970664371,0.07841800915104274,1
0.1337974975582642,-0.047801700475070694,0.9549271627579212,-2.8531459369828864,-1.721005801275464,-0.29648913047471065,0
-0.9659053459704491,0.9830914346923724,0.5080162484892512,0.005604577087969992,-0.2385823054284098,1.0952228899576406,1
1.043500259763819,-0.2802401376453501,0.5212158103125673,188.94660096737167,-248.08526282949992,68.2151957573558,10
0.03617712238948468,-0.008576307986969114,0.8966347934919481,-2.763348297132754,-1.584680118440065,-0.4332416124228429,0
0.10558257926897262,-0.03137187541349862,0.9278377778447129,-2.769604736170082,-1.471998053141608,-0.1596790766126459,0
-0.012240537225659393,0.09122420344662491,0.05417866725651376,-0.09335969638568924,0.03601206121890872,0.009516975820120057,1
-0.17407608052855642,-0.17395336647226428,-0.18488579067108601,-0.06861067910564438,-0.017641411338712283,0.4490402740754988,1
0.10552611508652908,0.07557295535782199,0.9501066059259259,-6.388902994309835,-21.31344773053038,1.2802698565957293,10
-0.1822576018679674,0.006906307379795286,0.8647826190215302,10.112673238360514,-74.91649197351857,212.64142034647037,10
-0.0053075322903414004,-0.18608332949559492,-0.0960842783188016,-0.016440538689671984,0.009603837603049128,-0.1959150048724608,1
0.9848306324010262,0.3451962908341616,1.0287336400719025,-82.65730028884344,-19.347841121356712,250.1363503007177,10
-0.5031712586716156,0.845705127238911,-0.8255037130538606,0.0631450435307665,-0.1400953671761071,0.1807286768794858,1
0.3356193886087727,0.5573566931227284,1.608776183426348,-4.428310507072476,-15.541806752154345,5.432532047148235,10
0.11476078072465141,0.19276079104049174,-0.2775423494523599,0.023402353542117216,-0.19099736570500758,-0.026159237811429942,1
0.09838621243995707,-0.0009494845081512993,0.9789198536704726,-2.4674568588232493,-1.5155336331269083,-0.2901489240238821,0
0.046555780361058244,-0.032947165836023556,0.9359032972706665,-2.8659579689373182,-1.5356514756981692,-0.42211124790567545,0
-0.011137941667767992,-0.17273490353100812,-0.5957380331886383,0.17581244344045638,-0.0641257024248416,-0.046748406629403556,1
-0.011201288122445058,-0.046708817696544745,-0.014038553029715926,0.15341085984497846,0.09996511434483979,0.04638076197497386,1
0.09410256380839549,0.07008559320761498,0.8031878224750536,-2.6793392551842574,-1.7246847657165036,-0.2690769024102528,0
-0.5190355051227299,0.14794951070118206,0.9318866448867412,-68.54369391608904,-61.72466841585896,116.56840786962226,10
-0.001782253684183166,0.016289777162262396,-0.187096861895579,0.038770929035002795,0.2885331891012312,-0.0868468979823669,1
0.0588691266037555,-0.03845615575039608,0.009241432411380084,0.011013448500041673,0.030905038631757285,0.14588105550372954,1
0.011773907629207542,-0.1614668296751136,-0.48640362643890234,-6.631126412409705e-05,0.03098837195277744,0.34646123129187234,1
0.050835975486860134,-0.01727165618068906,0.9102062513414559,-2.880483366229453,-1.6508562917954113,-0.4639378502017154,0
-0.7026114466575282,0.6162318047900635,0.7590121175013546,-202.60656795494944,-66.42488716546859,250.10355204547218,10
0.1668545009650412,0.05541308537591369,1.0191901123939318,-2.881878296059218,-1.7669691764264772,-0.43904753732634544,0
0.08842278318150454,0.6926220249483508,1.7992727275618978,250.30287868879697,-74.44993694111945,-16.20756924400942,10
0.010850879521688154,0.1252481720501551,0.19589907099912557,-0.20752158398716747,-0.0009653581887858571,-0.40750246089928044,1
0.04808999800122207,0.16435340886422606,0.9819000480678229,-3.048352400869869,-1.7003054586098822,-0.3736067180817387,0
-0.9826422329557147,0.3321332862744737,1.12148262340452,249.90232501458772,-48.005280502471884,49.53317957155576,10
0.04481768928353633,0.022739518237311435,0.9311647788777347,-2.778496265235397,-1.7485903017726518,-0.4632953524436745,0
0.06997141766689915,0.004154384688968924,1.0560355561777435,-3.1762852491749762,-1.6003332316709256,-0.29525196929466246,0
0.0681303435219021,0.0443858430920875,0.46923004569267307,-0.04756386908540436,-0.10750662082516968,-0.051539997776007394,1
0.6548355179338782,-0.14870710406017734,0.8205443922974649,-1.6960157254870565,-30.398632669709833,-32.68749123472375,10
0.05687674145358679,0.0327466864063759,1.0042949899230227,-2.999781440696162,-1.55805192906746,-0.25092621702880763,0
-0.2504780854245477,0.4742060607569072,1.3280500818136,139.56453832344215,41.11337193675108,65.31237293300717,10
-1.6127851634002741,0.22091826053259317,0.3016989513381843,13.615211931016795,109.36481055820776,-189.30520122170648,10
0.06157467768410844,0.006762100236095076,0.8506667128752208,-2.931726763497833,-1.455174038238998,-0.3130831131456978,0
0.05357898086006267,0.09576159006033234,0.9380070074074798,-2.9372970569576204,-1.6069663523825826,-0.1846900954080081,0
0.07308746616092811,0.031783552231524875,1.0044656359513118,-2.817037531390538,-1.55834901338565,-0.22674975137919423,0
0.35764188774316946,0.48808731751407725,1.2988736991519714,-236.57458338352794,-141.70294170979872,34.15696300087958,10
1.0890819473296691,0.6773604589703469,1.294027991012332,-57.41125645081293,-92.67693298111222,174.17396502077318,10
0.10068340410141004,0.008894662820674668,1.0248729507232595,-2.8970821820969115,-1.2870427942111418,-0.4199599479478505,0
-0.2143955367856559,0.018092213792474846,0.44759059934418544,-0.09700693279363581,-0.17795490222996713,-0.08490441581821337,1
-0.10309693897399684,-0.07110691094048853,0.2039273126639241,0.13235642110810258,0.00617729752848138,-0.20405371723161334,1
-0.060554611631147726,-0.012261946613379975,-0.10620564288049919,-0.009933047859106254,0.00617835823589019,-0.023245307826095636,1
0.16374424427112716,0.06507724648648887,0.9490099612868245,-3.1474496394375127,-1.6760622291638445,-0.5234549020115956,0
0.6877004033622149,0.7220988748226959,1.7657639558990572,-189.66012611806966,24.95661086036501,49.72509805736267,10
0.053031299318753715,-0.029500023891571452,0.9780848422952247,-2.520535794285405,-1.5206234109598706,-0.18173272686902553,0
1.104083543061475,0.5785664257829419,0.7633367500724533,78.98418025716163,46.17411772692394,-248.10342335160803,10
0.08339912419464325,0.29284299860422747,-0.1827117205083046,-0.09469678289248486,0.09290303892380891,0.12244768704386395,1
0.0913335220767454,0.09539876916586384,0.9593829866904077,-2.7610997045888084,-1.6504631376699854,-0.1367876088027753,0
-0.134053554760786,-0.005220585850345988,0.4255257734551094,-0.21458829702631121,-0.0930523258259922,0.03673461878296792,1
0.11470691829311896,-0.01882863900689885,0.9597059112807507,-2.822399881966363,-1.3983503485409905,-0.22821582878201266,0
0.08331753126998723,0.389168079022839,1.4707548486632147,-141.96180298380727,-49.53467933814258,238.76209829289525,10
0.3095727466580943,0.1576662493862507,0.5245024173457054,77.84524298472402,-68.43421081197415,68.37670915143786,10
0.061794921916838295,0.11421950388038649,-0.14439200098818597,0.12899870730509697,0.05291487872541553,0.08152942084241287,1
0.12507841053086616,0.028440421239241443,0.9140299672430131,-2.749611261771653,-1.420068199303642,-0.2939899954375572,0
0.04271927122542958,0.23305964093735396,0.09562221484295044,0.03170003052181396,-0.12293189696214675,0.011840640704029667,1
-0.03186867887625543,-0.019131355063519033,0.0754703506749366,-0.20323153770473407,-0.28292815230622925,-0.033362263841186644,1
0.06610971735450817,0.012842464587861774,0.9812375868000698,-2.9967991809649313,-1.5431600883523797,-0.41156957561316726,0
0.0837470216201994,0.004078754437789579,1.0344184763706787,-2.8318147969074707,-1.654554606156777,-0.34919287501060814,0
1.0063422330339187,0.43539815965342654,0.7767250893382077,79.04018664690507,46.11181437620025,-248.1398915275606,10
-0.017164978223449714,-0.006977736018785045,0.9436590635917275,-2.611795941626832,-1.5737244931994916,-0.27798389346784896,0
1.5286775366371024,0.06066861364142879,1.7829946626755995,-39.51746748650455,-48.36097599035791,28.633343927184647,10
-0.050230676058301726,0.11842725520500673,0.2751910331785716,-0.01292682629770074,-0.037304185469990356,0.005453595477497409,1
0.03766249499051142,0.05017472398354146,1.0309056568311286,-3.159311456615951,-1.4266133082170018,-0.30069306857319966,0
0.02203677949788692,0.034163806546820774,0.9226492841566691,-2.7955695863157612,-1.6055522954602888,-0.15238598751472254,0
0.1597511646757574,0.010568817857190839,0.9254411433907778,-2.8464017246067903,-1.6099307564340157,-0.44628856635776004,0
0.182587841454401,0.11413631783118706,1.6883989664028227,-16.36884343456345,-19.646034237960773,-2.0040628864477585,10
0.26441522969976866,0.0246244323422549,-0.8757842752044926,-179.7444651500426,-24.665556758361554,22.272595476970423,10
0.6614110160903633,1.3023201748660875,0.9229849816828354,-136.99581217254237,48.06819326334602,-205.29326689713102,10
-0.06778752675582055,0.09824050849441186,0.6405299233710123,-0.14154418343636854,0.06576571980854908,0.0403603537155218,1
0.15621860467336596,0.4525557440425722,1.1935752123931718,-157.93416014258733,-248.2118003213544,34.67439718062263,10
0.17618233498031052,0.010757697531397943,-0.16313120250757224,-0.0951396720668884,0.08672926343625964,0.07092981237649562,1
0.07795481024754357,-0.012097155635167486,0.44268473990818896,-0.09488197611587583,0.030725296715699672,-0.005733951517851083,1
-0.5176840302918192,0.09290430722182894,0.743495329382956,52.6533765850289,53.23934578644855,-157.34265231714704,10
0.5086455947852887,0.3012352803101403,1.3173159495166669,-69.89232484097128,13.411718778191583,-6.134738170317295,10
0.11712452314345381,0.01989337507172164,0.9427353068937008,-2.8229055392413374,-1.5712161527891024,-0.3751725275707367,0
0.18254823953936478,-0.09337177276056799,0.33359344741238434,-119.34731391904519,83.67313285556716,-11.238630643355519,10
0.12232041166970627,0.5082221739854685,1.1807826658009073,-157.8043376973557,-248.2057657284457,34.820777390807734,10
0.038275513786913795,-0.11051792780896208,-0.5821022861745754,-0.24865903809343468,0.07311704151434086,-0.05842565167332348,1
-0.52932079969489,0.1901659873761558,1.1505047475901151,33.42742317185609,32.076253865878314,-10.34238563846537,10
